x1_id,x2_session,x3_trial,x4_index_forests,x5_order_trials_in_forest,x6_continuous_energy_trial_start,x7_weather_type,x8_side_options_on_screen,x9_button_pressed,x10_RT,x11_choice,x12_continuous_energy_trial_end,x13_index_forests,x14_current_gain_magnitude,xempty,xempty,x17_weather_1_gain_magnitude,x18_weather_2_gain_magnitude,x19_weather_1_p_gain,x20_weather_2_p_gain,x21_dono,x22_dono,x23_dono,x24_dono,x25_dono,x26_dono,x27_expected_energy_no_bounds,x28_expected_energy_w_boundaries,x29_dono,x30_dono,x31_dono
101.0,1.0,1.0,1209.0,1.0,3.0,1.0,1.0,97.0,1106.0,1.0,4.0,1209.0,3.0,0.0,0.0,1.0,4.0,0.6,0.6,4.0,4.0,0.32416000000000006,0.33856,0.30976000000000004,-0.20000000000000007,1.5999999999999999,0.7,1.0,1.0,1209.0
101.0,1.0,2.0,1209.0,2.0,4.0,1.0,2.0,97.0,1111.0,0.0,3.0,1209.0,3.0,0.0,0.0,1.0,4.0,0.6,0.6,4.0,4.0,0.32416000000000006,0.33856,0.30976000000000004,-0.20000000000000007,1.5999999999999999,0.7,1.0,1.0,1209.0
101.0,1.0,3.0,1209.0,3.0,3.0,1.0,2.0,98.0,1281.0,1.0,1.0,1209.0,3.0,0.0,0.0,1.0,4.0,0.6,0.6,4.0,4.0,0.32416000000000006,0.33856,0.30976000000000004,-0.20000000000000007,1.5999999999999999,0.7,1.0,1.0,1209.0
101.0,1.0,4.0,1209.0,4.0,1.0,1.0,2.0,98.0,1424.0,1.0,2.0,1209.0,3.0,0.0,0.0,1.0,4.0,0.6,0.6,4.0,4.0,0.32416000000000006,0.33856,0.30976000000000004,-0.20000000000000007,1.5999999999999999,0.7,1.0,1.0,1209.0
101.0,1.0,5.0,1209.0,5.0,2.0,1.0,2.0,97.0,1394.0,0.0,1.0,1209.0,3.0,0.0,0.0,1.0,4.0,0.6,0.6,4.0,4.0,0.32416000000000006,0.33856,0.30976000000000004,-0.20000000000000007,1.5999999999999999,0.7,1.0,1.0,1209.0
101.0,1.0,6.0,336.0,1.0,2.0,1.0,2.0,97.0,1078.0,0.0,1.0,336.0,2.0,0.0,0.0,1.0,1.0,0.30000000000000004,0.8,2.0,6.0,0.5484374999999999,0.6647749999999999,0.43209999999999993,-1.0999999999999999,0.40000000000000013,-0.34999999999999987,2.0,2.0,336.0
101.0,1.0,7.0,336.0,2.0,1.0,2.0,1.0,97.0,1186.0,1.0,2.0,336.0,2.0,0.0,0.0,1.0,1.0,0.30000000000000004,0.8,2.0,6.0,0.5484374999999999,0.6647749999999999,0.43209999999999993,-1.0999999999999999,0.40000000000000013,-0.34999999999999987,2.0,2.0,336.0
101.0,1.0,8.0,336.0,3.0,2.0,2.0,1.0,97.0,856.0,1.0,3.0,336.0,2.0,0.0,0.0,1.0,1.0,0.30000000000000004,0.8,2.0,6.0,0.5484374999999999,0.6647749999999999,0.43209999999999993,-1.0999999999999999,0.40000000000000013,-0.34999999999999987,2.0,2.0,336.0
101.0,1.0,9.0,336.0,4.0,3.0,2.0,2.0,97.0,1420.0,0.0,2.0,336.0,2.0,0.0,0.0,1.0,1.0,0.30000000000000004,0.8,2.0,6.0,0.5484374999999999,0.6647749999999999,0.43209999999999993,-1.0999999999999999,0.40000000000000013,-0.34999999999999987,2.0,2.0,336.0
101.0,1.0,10.0,336.0,5.0,2.0,2.0,2.0,98.0,868.0,1.0,0.0,336.0,2.0,0.0,0.0,1.0,1.0,0.30000000000000004,0.8,2.0,6.0,0.5484374999999999,0.6647749999999999,0.43209999999999993,-1.0999999999999999,0.40000000000000013,-0.34999999999999987,2.0,2.0,336.0
101.0,1.0,11.0,1097.0,1.0,3.0,2.0,1.0,97.0,1219.0,1.0,1.0,1097.0,3.0,0.0,0.0,0.0,1.0,0.4,0.8,2.0,6.0,0.37479999999999997,0.4943999999999999,0.2551999999999999,-1.2,0.40000000000000013,-0.3999999999999999,3.0,3.0,1097.0
101.0,1.0,12.0,1097.0,2.0,1.0,1.0,1.0,97.0,1661.0,1.0,1.0,1097.0,3.0,0.0,0.0,0.0,1.0,0.4,0.8,2.0,6.0,0.37479999999999997,0.4943999999999999,0.2551999999999999,-1.2,0.40000000000000013,-0.3999999999999999,3.0,3.0,1097.0
101.0,1.0,13.0,1097.0,3.0,1.0,2.0,2.0,98.0,1099.0,1.0,2.0,1097.0,3.0,0.0,0.0,0.0,1.0,0.4,0.8,2.0,6.0,0.37479999999999997,0.4943999999999999,0.2551999999999999,-1.2,0.40000000000000013,-0.3999999999999999,3.0,3.0,1097.0
101.0,1.0,14.0,1097.0,4.0,2.0,2.0,2.0,98.0,910.0,1.0,3.0,1097.0,3.0,0.0,0.0,0.0,1.0,0.4,0.8,2.0,6.0,0.37479999999999997,0.4943999999999999,0.2551999999999999,-1.2,0.40000000000000013,-0.3999999999999999,3.0,3.0,1097.0
101.0,1.0,15.0,1097.0,5.0,3.0,1.0,1.0,98.0,1501.0,0.0,2.0,1097.0,3.0,0.0,0.0,0.0,1.0,0.4,0.8,2.0,6.0,0.37479999999999997,0.4943999999999999,0.2551999999999999,-1.2,0.40000000000000013,-0.3999999999999999,3.0,3.0,1097.0
101.0,1.0,16.0,108.0,1.0,2.0,1.0,2.0,97.0,1132.0,0.0,1.0,108.0,2.0,0.0,0.0,0.0,2.0,0.1,0.8,2.0,6.0,0.506811875,0.6791437499999999,0.33447999999999994,-1.8,1.2000000000000002,-0.29999999999999993,2.0,4.0,108.0
101.0,1.0,17.0,108.0,2.0,1.0,2.0,2.0,98.0,1050.0,1.0,0.0,108.0,2.0,0.0,0.0,0.0,2.0,0.1,0.8,2.0,6.0,0.506811875,0.6791437499999999,0.33447999999999994,-1.8,1.2000000000000002,-0.29999999999999993,2.0,4.0,108.0
101.0,1.0,18.0,108.0,3.0,0.0,0.0,0.0,98.0,464.0,0.0,0.0,108.0,2.0,0.0,0.0,0.0,2.0,0.1,0.8,2.0,6.0,0.506811875,0.6791437499999999,0.33447999999999994,-1.8,1.2000000000000002,-0.29999999999999993,2.0,4.0,108.0
101.0,1.0,19.0,108.0,4.0,0.0,0.0,0.0,98.0,610.0,0.0,0.0,108.0,2.0,0.0,0.0,0.0,2.0,0.1,0.8,2.0,6.0,0.506811875,0.6791437499999999,0.33447999999999994,-1.8,1.2000000000000002,-0.29999999999999993,2.0,4.0,108.0
101.0,1.0,20.0,108.0,5.0,0.0,0.0,0.0,98.0,559.0,0.0,0.0,108.0,2.0,0.0,0.0,0.0,2.0,0.1,0.8,2.0,6.0,0.506811875,0.6791437499999999,0.33447999999999994,-1.8,1.2000000000000002,-0.29999999999999993,2.0,4.0,108.0
101.0,1.0,21.0,1435.0,1.0,4.0,1.0,1.0,98.0,955.0,0.0,3.0,1435.0,4.0,0.0,0.0,2.0,2.0,0.1,0.6,2.0,5.0,0.40555,0.42660000000000003,0.3845,-1.6,0.3999999999999999,-0.6000000000000001,1.0,5.0,1435.0
101.0,1.0,22.0,1435.0,2.0,3.0,2.0,1.0,97.0,1244.0,1.0,5.0,1435.0,4.0,0.0,0.0,2.0,2.0,0.1,0.6,2.0,5.0,0.40555,0.42660000000000003,0.3845,-1.6,0.3999999999999999,-0.6000000000000001,1.0,5.0,1435.0
101.0,1.0,23.0,1435.0,3.0,5.0,1.0,2.0,97.0,1035.0,0.0,4.0,1435.0,4.0,0.0,0.0,2.0,2.0,0.1,0.6,2.0,5.0,0.40555,0.42660000000000003,0.3845,-1.6,0.3999999999999999,-0.6000000000000001,1.0,5.0,1435.0
101.0,1.0,24.0,1435.0,4.0,4.0,2.0,2.0,98.0,1424.0,1.0,5.0,1435.0,4.0,0.0,0.0,2.0,2.0,0.1,0.6,2.0,5.0,0.40555,0.42660000000000003,0.3845,-1.6,0.3999999999999999,-0.6000000000000001,1.0,5.0,1435.0
101.0,1.0,25.0,1435.0,5.0,5.0,2.0,1.0,98.0,1639.0,0.0,4.0,1435.0,4.0,0.0,0.0,2.0,2.0,0.1,0.6,2.0,5.0,0.40555,0.42660000000000003,0.3845,-1.6,0.3999999999999999,-0.6000000000000001,1.0,5.0,1435.0
101.0,1.0,26.0,1082.0,1.0,3.0,1.0,1.0,98.0,1380.0,0.0,2.0,1082.0,3.0,0.0,0.0,0.0,1.0,0.4,0.7,2.0,6.0,0.4940071875,0.5993625,0.38865187500000004,-1.2,0.09999999999999987,-0.55,1.0,6.0,1082.0
101.0,1.0,27.0,1082.0,2.0,2.0,1.0,1.0,97.0,1362.0,1.0,0.0,1082.0,3.0,0.0,0.0,0.0,1.0,0.4,0.7,2.0,6.0,0.4940071875,0.5993625,0.38865187500000004,-1.2,0.09999999999999987,-0.55,1.0,6.0,1082.0
101.0,1.0,28.0,1082.0,3.0,0.0,0.0,0.0,98.0,1069.0,0.0,0.0,1082.0,3.0,0.0,0.0,0.0,1.0,0.4,0.7,2.0,6.0,0.4940071875,0.5993625,0.38865187500000004,-1.2,0.09999999999999987,-0.55,1.0,6.0,1082.0
101.0,1.0,29.0,1082.0,4.0,0.0,0.0,0.0,98.0,514.0,0.0,0.0,1082.0,3.0,0.0,0.0,0.0,1.0,0.4,0.7,2.0,6.0,0.4940071875,0.5993625,0.38865187500000004,-1.2,0.09999999999999987,-0.55,1.0,6.0,1082.0
101.0,1.0,30.0,1082.0,5.0,0.0,0.0,0.0,98.0,817.0,0.0,0.0,1082.0,3.0,0.0,0.0,0.0,1.0,0.4,0.7,2.0,6.0,0.4940071875,0.5993625,0.38865187500000004,-1.2,0.09999999999999987,-0.55,1.0,6.0,1082.0
101.0,1.0,31.0,884.0,1.0,3.0,1.0,1.0,97.0,1107.0,1.0,1.0,884.0,3.0,0.0,0.0,3.0,4.0,0.2,0.6,2.0,5.0,0.4466,0.514,0.37920000000000004,-1.0,1.5999999999999999,0.29999999999999993,2.0,7.0,884.0
101.0,1.0,32.0,884.0,2.0,1.0,1.0,2.0,98.0,1283.0,1.0,4.0,884.0,3.0,0.0,0.0,3.0,4.0,0.2,0.6,2.0,5.0,0.4466,0.514,0.37920000000000004,-1.0,1.5999999999999999,0.29999999999999993,2.0,7.0,884.0
101.0,1.0,33.0,884.0,3.0,4.0,1.0,1.0,98.0,1283.0,0.0,3.0,884.0,3.0,0.0,0.0,3.0,4.0,0.2,0.6,2.0,5.0,0.4466,0.514,0.37920000000000004,-1.0,1.5999999999999999,0.29999999999999993,2.0,7.0,884.0
101.0,1.0,34.0,884.0,4.0,3.0,2.0,2.0,98.0,911.0,1.0,1.0,884.0,3.0,0.0,0.0,3.0,4.0,0.2,0.6,2.0,5.0,0.4466,0.514,0.37920000000000004,-1.0,1.5999999999999999,0.29999999999999993,2.0,7.0,884.0
101.0,1.0,35.0,884.0,5.0,1.0,2.0,1.0,97.0,1194.0,1.0,5.0,884.0,3.0,0.0,0.0,3.0,4.0,0.2,0.6,2.0,5.0,0.4466,0.514,0.37920000000000004,-1.0,1.5999999999999999,0.29999999999999993,2.0,7.0,884.0
101.0,1.0,36.0,1743.0,1.0,4.0,1.0,1.0,98.0,1672.0,0.0,3.0,1743.0,4.0,0.0,0.0,0.0,2.0,0.4,0.6,2.0,5.0,0.37840000000000007,0.404,0.3528,-1.2,0.3999999999999999,-0.4,1.0,8.0,1743.0
101.0,1.0,37.0,1743.0,2.0,3.0,2.0,1.0,97.0,1245.0,1.0,5.0,1743.0,4.0,0.0,0.0,0.0,2.0,0.4,0.6,2.0,5.0,0.37840000000000007,0.404,0.3528,-1.2,0.3999999999999999,-0.4,1.0,8.0,1743.0
101.0,1.0,38.0,1743.0,3.0,5.0,1.0,1.0,97.0,1719.0,1.0,5.0,1743.0,4.0,0.0,0.0,0.0,2.0,0.4,0.6,2.0,5.0,0.37840000000000007,0.404,0.3528,-1.2,0.3999999999999999,-0.4,1.0,8.0,1743.0
101.0,1.0,39.0,1743.0,4.0,5.0,2.0,2.0,98.0,1481.0,1.0,3.0,1743.0,4.0,0.0,0.0,0.0,2.0,0.4,0.6,2.0,5.0,0.37840000000000007,0.404,0.3528,-1.2,0.3999999999999999,-0.4,1.0,8.0,1743.0
101.0,1.0,40.0,1743.0,5.0,3.0,2.0,1.0,97.0,1273.0,1.0,5.0,1743.0,4.0,0.0,0.0,0.0,2.0,0.4,0.6,2.0,5.0,0.37840000000000007,0.404,0.3528,-1.2,0.3999999999999999,-0.4,1.0,8.0,1743.0
101.0,1.0,41.0,1111.0,1.0,3.0,2.0,1.0,97.0,1068.0,1.0,3.0,1111.0,3.0,0.0,0.0,0.0,0.0,0.4,0.9,2.0,6.0,0.5010749999999999,0.61524375,0.3869062499999999,-1.2,-0.19999999999999996,-0.7,1.0,9.0,1111.0
101.0,1.0,42.0,1111.0,2.0,3.0,2.0,1.0,97.0,1494.0,1.0,3.0,1111.0,3.0,0.0,0.0,0.0,0.0,0.4,0.9,2.0,6.0,0.5010749999999999,0.61524375,0.3869062499999999,-1.2,-0.19999999999999996,-0.7,1.0,9.0,1111.0
101.0,1.0,43.0,1111.0,3.0,3.0,2.0,2.0,98.0,1351.0,1.0,3.0,1111.0,3.0,0.0,0.0,0.0,0.0,0.4,0.9,2.0,6.0,0.5010749999999999,0.61524375,0.3869062499999999,-1.2,-0.19999999999999996,-0.7,1.0,9.0,1111.0
101.0,1.0,44.0,1111.0,4.0,3.0,1.0,1.0,98.0,1495.0,0.0,2.0,1111.0,3.0,0.0,0.0,0.0,0.0,0.4,0.9,2.0,6.0,0.5010749999999999,0.61524375,0.3869062499999999,-1.2,-0.19999999999999996,-0.7,1.0,9.0,1111.0
101.0,1.0,45.0,1111.0,5.0,2.0,2.0,2.0,98.0,1208.0,1.0,2.0,1111.0,3.0,0.0,0.0,0.0,0.0,0.4,0.9,2.0,6.0,0.5010749999999999,0.61524375,0.3869062499999999,-1.2,-0.19999999999999996,-0.7,1.0,9.0,1111.0
101.0,1.0,46.0,1154.0,1.0,3.0,2.0,1.0,97.0,944.0,1.0,5.0,1154.0,3.0,0.0,0.0,3.0,4.0,0.5,0.6,4.0,4.0,0.33665625,0.3515625,0.32175,0.5,1.5999999999999999,1.0499999999999998,1.0,10.0,1154.0
101.0,1.0,47.0,1154.0,2.0,5.0,2.0,2.0,98.0,1997.0,1.0,3.0,1154.0,3.0,0.0,0.0,3.0,4.0,0.5,0.6,4.0,4.0,0.33665625,0.3515625,0.32175,0.5,1.5999999999999999,1.0499999999999998,1.0,10.0,1154.0
101.0,1.0,48.0,1154.0,3.0,3.0,1.0,1.0,98.0,1170.0,0.0,2.0,1154.0,3.0,0.0,0.0,3.0,4.0,0.5,0.6,4.0,4.0,0.33665625,0.3515625,0.32175,0.5,1.5999999999999999,1.0499999999999998,1.0,10.0,1154.0
101.0,1.0,49.0,1154.0,4.0,2.0,2.0,1.0,98.0,1644.0,0.0,1.0,1154.0,3.0,0.0,0.0,3.0,4.0,0.5,0.6,4.0,4.0,0.33665625,0.3515625,0.32175,0.5,1.5999999999999999,1.0499999999999998,1.0,10.0,1154.0
101.0,1.0,50.0,1154.0,5.0,1.0,2.0,1.0,97.0,999.0,1.0,5.0,1154.0,3.0,0.0,0.0,3.0,4.0,0.5,0.6,4.0,4.0,0.33665625,0.3515625,0.32175,0.5,1.5999999999999999,1.0499999999999998,1.0,10.0,1154.0
101.0,1.0,51.0,1897.0,1.0,4.0,1.0,2.0,97.0,1412.0,0.0,3.0,1897.0,4.0,0.0,0.0,1.0,2.0,0.6,0.7,2.0,6.0,0.23143468750000004,0.2621375000000001,0.20073187500000006,-0.20000000000000007,0.7999999999999998,0.2999999999999999,3.0,11.0,1897.0
101.0,1.0,52.0,1897.0,2.0,3.0,2.0,1.0,97.0,1262.0,1.0,5.0,1897.0,4.0,0.0,0.0,1.0,2.0,0.6,0.7,2.0,6.0,0.23143468750000004,0.2621375000000001,0.20073187500000006,-0.20000000000000007,0.7999999999999998,0.2999999999999999,3.0,11.0,1897.0
101.0,1.0,53.0,1897.0,3.0,5.0,1.0,2.0,97.0,1701.0,0.0,4.0,1897.0,4.0,0.0,0.0,1.0,2.0,0.6,0.7,2.0,6.0,0.23143468750000004,0.2621375000000001,0.20073187500000006,-0.20000000000000007,0.7999999999999998,0.2999999999999999,3.0,11.0,1897.0
101.0,1.0,54.0,1897.0,4.0,4.0,2.0,2.0,97.0,1836.0,0.0,3.0,1897.0,4.0,0.0,0.0,1.0,2.0,0.6,0.7,2.0,6.0,0.23143468750000004,0.2621375000000001,0.20073187500000006,-0.20000000000000007,0.7999999999999998,0.2999999999999999,3.0,11.0,1897.0
101.0,1.0,55.0,1897.0,5.0,3.0,2.0,2.0,98.0,1036.0,1.0,5.0,1897.0,4.0,0.0,0.0,1.0,2.0,0.6,0.7,2.0,6.0,0.23143468750000004,0.2621375000000001,0.20073187500000006,-0.20000000000000007,0.7999999999999998,0.2999999999999999,3.0,11.0,1897.0
101.0,1.0,56.0,780.0,1.0,3.0,1.0,1.0,98.0,997.0,0.0,2.0,780.0,3.0,0.0,0.0,4.0,4.0,0.1,0.7,2.0,6.0,0.37065750000000003,0.46260000000000007,0.27871500000000005,-1.4,2.1999999999999997,0.3999999999999999,1.0,12.0,780.0
101.0,1.0,57.0,780.0,2.0,2.0,2.0,2.0,98.0,873.0,1.0,5.0,780.0,3.0,0.0,0.0,4.0,4.0,0.1,0.7,2.0,6.0,0.37065750000000003,0.46260000000000007,0.27871500000000005,-1.4,2.1999999999999997,0.3999999999999999,1.0,12.0,780.0
101.0,1.0,58.0,780.0,3.0,5.0,1.0,1.0,98.0,1112.0,0.0,4.0,780.0,3.0,0.0,0.0,4.0,4.0,0.1,0.7,2.0,6.0,0.37065750000000003,0.46260000000000007,0.27871500000000005,-1.4,2.1999999999999997,0.3999999999999999,1.0,12.0,780.0
101.0,1.0,59.0,780.0,4.0,4.0,2.0,2.0,98.0,1067.0,1.0,2.0,780.0,3.0,0.0,0.0,4.0,4.0,0.1,0.7,2.0,6.0,0.37065750000000003,0.46260000000000007,0.27871500000000005,-1.4,2.1999999999999997,0.3999999999999999,1.0,12.0,780.0
101.0,1.0,60.0,780.0,5.0,2.0,2.0,2.0,97.0,1798.0,0.0,1.0,780.0,3.0,0.0,0.0,4.0,4.0,0.1,0.7,2.0,6.0,0.37065750000000003,0.46260000000000007,0.27871500000000005,-1.4,2.1999999999999997,0.3999999999999999,1.0,12.0,780.0
101.0,1.0,61.0,1541.0,1.0,4.0,2.0,1.0,98.0,1254.0,0.0,3.0,1541.0,4.0,0.0,0.0,2.0,3.0,0.2,0.5,2.0,4.0,0.45718749999999997,0.45718749999999997,0.45718749999999997,-1.2000000000000002,0.5,-0.3500000000000001,1.0,13.0,1541.0
101.0,1.0,62.0,1541.0,2.0,3.0,2.0,2.0,98.0,1035.0,1.0,1.0,1541.0,4.0,0.0,0.0,2.0,3.0,0.2,0.5,2.0,4.0,0.45718749999999997,0.45718749999999997,0.45718749999999997,-1.2000000000000002,0.5,-0.3500000000000001,1.0,13.0,1541.0
101.0,1.0,63.0,1541.0,3.0,1.0,2.0,1.0,97.0,1377.0,1.0,0.0,1541.0,4.0,0.0,0.0,2.0,3.0,0.2,0.5,2.0,4.0,0.45718749999999997,0.45718749999999997,0.45718749999999997,-1.2000000000000002,0.5,-0.3500000000000001,1.0,13.0,1541.0
101.0,1.0,64.0,1541.0,4.0,0.0,0.0,0.0,98.0,686.0,0.0,0.0,1541.0,4.0,0.0,0.0,2.0,3.0,0.2,0.5,2.0,4.0,0.45718749999999997,0.45718749999999997,0.45718749999999997,-1.2000000000000002,0.5,-0.3500000000000001,1.0,13.0,1541.0
101.0,1.0,65.0,1541.0,5.0,0.0,0.0,0.0,98.0,375.0,0.0,0.0,1541.0,4.0,0.0,0.0,2.0,3.0,0.2,0.5,2.0,4.0,0.45718749999999997,0.45718749999999997,0.45718749999999997,-1.2000000000000002,0.5,-0.3500000000000001,1.0,13.0,1541.0
101.0,1.0,66.0,1103.0,1.0,3.0,2.0,2.0,98.0,709.0,1.0,5.0,1103.0,3.0,0.0,0.0,1.0,3.0,0.4,0.8,2.0,6.0,0.2429199999999999,0.3375999999999999,0.14823999999999996,-0.7999999999999999,2.0000000000000004,0.6000000000000003,1.0,14.0,1103.0
101.0,1.0,67.0,1103.0,2.0,5.0,2.0,2.0,98.0,1111.0,1.0,5.0,1103.0,3.0,0.0,0.0,1.0,3.0,0.4,0.8,2.0,6.0,0.2429199999999999,0.3375999999999999,0.14823999999999996,-0.7999999999999999,2.0000000000000004,0.6000000000000003,1.0,14.0,1103.0
101.0,1.0,68.0,1103.0,3.0,5.0,2.0,2.0,97.0,1264.0,0.0,4.0,1103.0,3.0,0.0,0.0,1.0,3.0,0.4,0.8,2.0,6.0,0.2429199999999999,0.3375999999999999,0.14823999999999996,-0.7999999999999999,2.0000000000000004,0.6000000000000003,1.0,14.0,1103.0
101.0,1.0,69.0,1103.0,4.0,4.0,1.0,1.0,98.0,1271.0,0.0,3.0,1103.0,3.0,0.0,0.0,1.0,3.0,0.4,0.8,2.0,6.0,0.2429199999999999,0.3375999999999999,0.14823999999999996,-0.7999999999999999,2.0000000000000004,0.6000000000000003,1.0,14.0,1103.0
101.0,1.0,70.0,1103.0,5.0,3.0,1.0,2.0,97.0,1814.0,0.0,2.0,1103.0,3.0,0.0,0.0,1.0,3.0,0.4,0.8,2.0,6.0,0.2429199999999999,0.3375999999999999,0.14823999999999996,-0.7999999999999999,2.0000000000000004,0.6000000000000003,1.0,14.0,1103.0
101.0,1.0,71.0,640.0,1.0,2.0,1.0,1.0,97.0,965.0,1.0,0.0,640.0,2.0,0.0,0.0,2.0,2.0,0.8,0.8,4.0,4.0,0.23199999999999993,0.23199999999999993,0.23199999999999993,1.2000000000000002,1.2000000000000002,1.2000000000000002,1.0,15.0,640.0
101.0,1.0,72.0,640.0,2.0,0.0,0.0,0.0,98.0,621.0,0.0,0.0,640.0,2.0,0.0,0.0,2.0,2.0,0.8,0.8,4.0,4.0,0.23199999999999993,0.23199999999999993,0.23199999999999993,1.2000000000000002,1.2000000000000002,1.2000000000000002,1.0,15.0,640.0
101.0,1.0,73.0,640.0,3.0,0.0,0.0,0.0,98.0,279.0,0.0,0.0,640.0,2.0,0.0,0.0,2.0,2.0,0.8,0.8,4.0,4.0,0.23199999999999993,0.23199999999999993,0.23199999999999993,1.2000000000000002,1.2000000000000002,1.2000000000000002,1.0,15.0,640.0
101.0,1.0,74.0,640.0,4.0,0.0,0.0,0.0,,2012.0,0.0,0.0,640.0,2.0,0.0,0.0,2.0,2.0,0.8,0.8,4.0,4.0,0.23199999999999993,0.23199999999999993,0.23199999999999993,1.2000000000000002,1.2000000000000002,1.2000000000000002,1.0,15.0,640.0
101.0,1.0,75.0,640.0,5.0,0.0,0.0,0.0,98.0,574.0,0.0,0.0,640.0,2.0,0.0,0.0,2.0,2.0,0.8,0.8,4.0,4.0,0.23199999999999993,0.23199999999999993,0.23199999999999993,1.2000000000000002,1.2000000000000002,1.2000000000000002,1.0,15.0,640.0
101.0,1.0,76.0,1104.0,1.0,3.0,2.0,1.0,97.0,1190.0,1.0,5.0,1104.0,3.0,0.0,0.0,1.0,4.0,0.4,0.8,2.0,6.0,0.23947999999999997,0.3355999999999999,0.14335999999999996,-0.7999999999999999,2.8000000000000003,1.0000000000000002,1.0,16.0,1104.0
101.0,1.0,77.0,1104.0,2.0,5.0,2.0,1.0,97.0,1593.0,1.0,5.0,1104.0,3.0,0.0,0.0,1.0,4.0,0.4,0.8,2.0,6.0,0.23947999999999997,0.3355999999999999,0.14335999999999996,-0.7999999999999999,2.8000000000000003,1.0000000000000002,1.0,16.0,1104.0
101.0,1.0,78.0,1104.0,3.0,5.0,1.0,2.0,97.0,850.0,0.0,4.0,1104.0,3.0,0.0,0.0,1.0,4.0,0.4,0.8,2.0,6.0,0.23947999999999997,0.3355999999999999,0.14335999999999996,-0.7999999999999999,2.8000000000000003,1.0000000000000002,1.0,16.0,1104.0
101.0,1.0,79.0,1104.0,4.0,4.0,2.0,2.0,98.0,1341.0,1.0,5.0,1104.0,3.0,0.0,0.0,1.0,4.0,0.4,0.8,2.0,6.0,0.23947999999999997,0.3355999999999999,0.14335999999999996,-0.7999999999999999,2.8000000000000003,1.0000000000000002,1.0,16.0,1104.0
101.0,1.0,80.0,1104.0,5.0,5.0,1.0,1.0,98.0,1123.0,0.0,4.0,1104.0,3.0,0.0,0.0,1.0,4.0,0.4,0.8,2.0,6.0,0.23947999999999997,0.3355999999999999,0.14335999999999996,-0.7999999999999999,2.8000000000000003,1.0000000000000002,1.0,16.0,1104.0
101.0,1.0,81.0,753.0,1.0,3.0,1.0,1.0,98.0,1165.0,0.0,2.0,753.0,3.0,0.0,0.0,0.0,2.0,0.1,0.6,2.0,5.0,0.5487525,0.6425624999999999,0.45494249999999997,-1.8,0.3999999999999999,-0.7000000000000001,1.0,17.0,753.0
101.0,1.0,82.0,753.0,2.0,2.0,2.0,2.0,98.0,1573.0,1.0,0.0,753.0,3.0,0.0,0.0,0.0,2.0,0.1,0.6,2.0,5.0,0.5487525,0.6425624999999999,0.45494249999999997,-1.8,0.3999999999999999,-0.7000000000000001,1.0,17.0,753.0
101.0,1.0,83.0,753.0,3.0,0.0,0.0,0.0,98.0,939.0,0.0,0.0,753.0,3.0,0.0,0.0,0.0,2.0,0.1,0.6,2.0,5.0,0.5487525,0.6425624999999999,0.45494249999999997,-1.8,0.3999999999999999,-0.7000000000000001,1.0,17.0,753.0
101.0,1.0,84.0,753.0,4.0,0.0,0.0,0.0,98.0,752.0,0.0,0.0,753.0,3.0,0.0,0.0,0.0,2.0,0.1,0.6,2.0,5.0,0.5487525,0.6425624999999999,0.45494249999999997,-1.8,0.3999999999999999,-0.7000000000000001,1.0,17.0,753.0
101.0,1.0,85.0,753.0,5.0,0.0,0.0,0.0,98.0,613.0,0.0,0.0,753.0,3.0,0.0,0.0,0.0,2.0,0.1,0.6,2.0,5.0,0.5487525,0.6425624999999999,0.45494249999999997,-1.8,0.3999999999999999,-0.7000000000000001,1.0,17.0,753.0
101.0,1.0,86.0,878.0,1.0,3.0,1.0,1.0,98.0,1043.0,0.0,2.0,878.0,3.0,0.0,0.0,1.0,3.0,0.2,0.6,2.0,5.0,0.4773000000000001,0.543,0.4116000000000001,-1.4000000000000001,0.9999999999999998,-0.20000000000000018,1.0,18.0,878.0
101.0,1.0,87.0,878.0,2.0,2.0,2.0,1.0,98.0,1634.0,0.0,1.0,878.0,3.0,0.0,0.0,1.0,3.0,0.2,0.6,2.0,5.0,0.4773000000000001,0.543,0.4116000000000001,-1.4000000000000001,0.9999999999999998,-0.20000000000000018,1.0,18.0,878.0
101.0,1.0,88.0,878.0,3.0,1.0,1.0,1.0,97.0,1332.0,1.0,0.0,878.0,3.0,0.0,0.0,1.0,3.0,0.2,0.6,2.0,5.0,0.4773000000000001,0.543,0.4116000000000001,-1.4000000000000001,0.9999999999999998,-0.20000000000000018,1.0,18.0,878.0
101.0,1.0,89.0,878.0,4.0,0.0,0.0,0.0,98.0,635.0,0.0,0.0,878.0,3.0,0.0,0.0,1.0,3.0,0.2,0.6,2.0,5.0,0.4773000000000001,0.543,0.4116000000000001,-1.4000000000000001,0.9999999999999998,-0.20000000000000018,1.0,18.0,878.0
101.0,1.0,90.0,878.0,5.0,0.0,0.0,0.0,98.0,876.0,0.0,0.0,878.0,3.0,0.0,0.0,1.0,3.0,0.2,0.6,2.0,5.0,0.4773000000000001,0.543,0.4116000000000001,-1.4000000000000001,0.9999999999999998,-0.20000000000000018,1.0,18.0,878.0
101.0,1.0,91.0,1681.0,1.0,4.0,2.0,1.0,98.0,1038.0,0.0,3.0,1681.0,4.0,0.0,0.0,0.0,0.0,0.30000000000000004,0.8,2.0,6.0,0.4198099999999999,0.49683749999999993,0.3427824999999999,-1.4,-0.3999999999999999,-0.8999999999999999,4.0,19.0,1681.0
101.0,1.0,92.0,1681.0,2.0,3.0,2.0,1.0,97.0,665.0,1.0,3.0,1681.0,4.0,0.0,0.0,0.0,0.0,0.30000000000000004,0.8,2.0,6.0,0.4198099999999999,0.49683749999999993,0.3427824999999999,-1.4,-0.3999999999999999,-0.8999999999999999,4.0,19.0,1681.0
101.0,1.0,93.0,1681.0,3.0,3.0,1.0,1.0,98.0,1499.0,0.0,2.0,1681.0,4.0,0.0,0.0,0.0,0.0,0.30000000000000004,0.8,2.0,6.0,0.4198099999999999,0.49683749999999993,0.3427824999999999,-1.4,-0.3999999999999999,-0.8999999999999999,4.0,19.0,1681.0
101.0,1.0,94.0,1681.0,4.0,2.0,2.0,1.0,97.0,695.0,1.0,2.0,1681.0,4.0,0.0,0.0,0.0,0.0,0.30000000000000004,0.8,2.0,6.0,0.4198099999999999,0.49683749999999993,0.3427824999999999,-1.4,-0.3999999999999999,-0.8999999999999999,4.0,19.0,1681.0
101.0,1.0,95.0,1681.0,5.0,2.0,1.0,2.0,97.0,1814.0,0.0,1.0,1681.0,4.0,0.0,0.0,0.0,0.0,0.30000000000000004,0.8,2.0,6.0,0.4198099999999999,0.49683749999999993,0.3427824999999999,-1.4,-0.3999999999999999,-0.8999999999999999,4.0,19.0,1681.0
101.0,1.0,96.0,539.0,1.0,2.0,2.0,2.0,98.0,1112.0,1.0,5.0,539.0,2.0,0.0,0.0,3.0,4.0,0.6,0.6,4.0,4.0,0.496,0.49600000000000005,0.49600000000000005,0.9999999999999998,1.5999999999999999,1.2999999999999998,1.0,20.0,539.0
101.0,1.0,97.0,539.0,2.0,5.0,1.0,2.0,97.0,1149.0,0.0,4.0,539.0,2.0,0.0,0.0,3.0,4.0,0.6,0.6,4.0,4.0,0.496,0.49600000000000005,0.49600000000000005,0.9999999999999998,1.5999999999999999,1.2999999999999998,1.0,20.0,539.0
101.0,1.0,98.0,539.0,3.0,4.0,2.0,2.0,97.0,1078.0,0.0,3.0,539.0,2.0,0.0,0.0,3.0,4.0,0.6,0.6,4.0,4.0,0.496,0.49600000000000005,0.49600000000000005,0.9999999999999998,1.5999999999999999,1.2999999999999998,1.0,20.0,539.0
101.0,1.0,99.0,539.0,4.0,3.0,1.0,2.0,98.0,1595.0,1.0,1.0,539.0,2.0,0.0,0.0,3.0,4.0,0.6,0.6,4.0,4.0,0.496,0.49600000000000005,0.49600000000000005,0.9999999999999998,1.5999999999999999,1.2999999999999998,1.0,20.0,539.0
101.0,1.0,100.0,539.0,5.0,1.0,2.0,2.0,98.0,1486.0,1.0,5.0,539.0,2.0,0.0,0.0,3.0,4.0,0.6,0.6,4.0,4.0,0.496,0.49600000000000005,0.49600000000000005,0.9999999999999998,1.5999999999999999,1.2999999999999998,1.0,20.0,539.0
101.0,1.0,101.0,327.0,1.0,2.0,1.0,1.0,98.0,1813.0,0.0,1.0,327.0,2.0,0.0,0.0,2.0,4.0,0.30000000000000004,0.7,2.0,6.0,0.46872812500000005,0.5530625,0.38439375000000003,-0.7999999999999998,2.1999999999999997,0.7,1.0,21.0,327.0
101.0,1.0,102.0,327.0,2.0,1.0,2.0,1.0,97.0,699.0,1.0,5.0,327.0,2.0,0.0,0.0,2.0,4.0,0.30000000000000004,0.7,2.0,6.0,0.46872812500000005,0.5530625,0.38439375000000003,-0.7999999999999998,2.1999999999999997,0.7,1.0,21.0,327.0
101.0,1.0,103.0,327.0,3.0,5.0,1.0,2.0,97.0,1197.0,0.0,4.0,327.0,2.0,0.0,0.0,2.0,4.0,0.30000000000000004,0.7,2.0,6.0,0.46872812500000005,0.5530625,0.38439375000000003,-0.7999999999999998,2.1999999999999997,0.7,1.0,21.0,327.0
101.0,1.0,104.0,327.0,4.0,4.0,2.0,1.0,97.0,1545.0,1.0,5.0,327.0,2.0,0.0,0.0,2.0,4.0,0.30000000000000004,0.7,2.0,6.0,0.46872812500000005,0.5530625,0.38439375000000003,-0.7999999999999998,2.1999999999999997,0.7,1.0,21.0,327.0
101.0,1.0,105.0,327.0,5.0,5.0,2.0,2.0,97.0,1292.0,0.0,4.0,327.0,2.0,0.0,0.0,2.0,4.0,0.30000000000000004,0.7,2.0,6.0,0.46872812500000005,0.5530625,0.38439375000000003,-0.7999999999999998,2.1999999999999997,0.7,1.0,21.0,327.0
101.0,1.0,106.0,910.0,1.0,3.0,2.0,1.0,98.0,1309.0,0.0,2.0,910.0,3.0,0.0,0.0,2.0,2.0,0.2,0.8,2.0,6.0,0.29414999999999997,0.409,0.17929999999999996,-1.2000000000000002,1.2000000000000002,0.0,2.0,22.0,910.0
101.0,1.0,107.0,910.0,2.0,2.0,1.0,1.0,98.0,1703.0,0.0,1.0,910.0,3.0,0.0,0.0,2.0,2.0,0.2,0.8,2.0,6.0,0.29414999999999997,0.409,0.17929999999999996,-1.2000000000000002,1.2000000000000002,0.0,2.0,22.0,910.0
101.0,1.0,108.0,910.0,3.0,1.0,2.0,2.0,98.0,1186.0,1.0,0.0,910.0,3.0,0.0,0.0,2.0,2.0,0.2,0.8,2.0,6.0,0.29414999999999997,0.409,0.17929999999999996,-1.2000000000000002,1.2000000000000002,0.0,2.0,22.0,910.0
101.0,1.0,109.0,910.0,4.0,0.0,0.0,0.0,98.0,838.0,0.0,0.0,910.0,3.0,0.0,0.0,2.0,2.0,0.2,0.8,2.0,6.0,0.29414999999999997,0.409,0.17929999999999996,-1.2000000000000002,1.2000000000000002,0.0,2.0,22.0,910.0
101.0,1.0,110.0,910.0,5.0,0.0,0.0,0.0,98.0,489.0,0.0,0.0,910.0,3.0,0.0,0.0,2.0,2.0,0.2,0.8,2.0,6.0,0.29414999999999997,0.409,0.17929999999999996,-1.2000000000000002,1.2000000000000002,0.0,2.0,22.0,910.0
101.0,1.0,111.0,234.0,1.0,2.0,1.0,2.0,97.0,1044.0,0.0,1.0,234.0,2.0,0.0,0.0,1.0,4.0,0.2,0.8,2.0,6.0,0.39919,0.5415,0.25687999999999994,-1.4000000000000001,2.8000000000000003,0.7000000000000001,2.0,23.0,234.0
101.0,1.0,112.0,234.0,2.0,1.0,2.0,1.0,97.0,886.0,1.0,5.0,234.0,2.0,0.0,0.0,1.0,4.0,0.2,0.8,2.0,6.0,0.39919,0.5415,0.25687999999999994,-1.4000000000000001,2.8000000000000003,0.7000000000000001,2.0,23.0,234.0
101.0,1.0,113.0,234.0,3.0,5.0,2.0,2.0,97.0,1257.0,0.0,4.0,234.0,2.0,0.0,0.0,1.0,4.0,0.2,0.8,2.0,6.0,0.39919,0.5415,0.25687999999999994,-1.4000000000000001,2.8000000000000003,0.7000000000000001,2.0,23.0,234.0
101.0,1.0,114.0,234.0,4.0,4.0,1.0,1.0,98.0,823.0,0.0,3.0,234.0,2.0,0.0,0.0,1.0,4.0,0.2,0.8,2.0,6.0,0.39919,0.5415,0.25687999999999994,-1.4000000000000001,2.8000000000000003,0.7000000000000001,2.0,23.0,234.0
101.0,1.0,115.0,234.0,5.0,3.0,2.0,2.0,98.0,1439.0,1.0,5.0,234.0,2.0,0.0,0.0,1.0,4.0,0.2,0.8,2.0,6.0,0.39919,0.5415,0.25687999999999994,-1.4000000000000001,2.8000000000000003,0.7000000000000001,2.0,23.0,234.0
101.0,1.0,116.0,440.0,1.0,2.0,1.0,1.0,98.0,1225.0,0.0,1.0,440.0,2.0,0.0,0.0,0.0,4.0,0.4,0.9,2.0,6.0,0.2801590625,0.43831875,0.12199937499999997,-1.2,3.4000000000000004,1.1,5.0,24.0,440.0
101.0,1.0,117.0,440.0,2.0,1.0,1.0,2.0,98.0,1485.0,1.0,0.0,440.0,2.0,0.0,0.0,0.0,4.0,0.4,0.9,2.0,6.0,0.2801590625,0.43831875,0.12199937499999997,-1.2,3.4000000000000004,1.1,5.0,24.0,440.0
101.0,1.0,118.0,440.0,3.0,0.0,0.0,0.0,98.0,538.0,0.0,0.0,440.0,2.0,0.0,0.0,0.0,4.0,0.4,0.9,2.0,6.0,0.2801590625,0.43831875,0.12199937499999997,-1.2,3.4000000000000004,1.1,5.0,24.0,440.0
101.0,1.0,119.0,440.0,4.0,0.0,0.0,0.0,98.0,529.0,0.0,0.0,440.0,2.0,0.0,0.0,0.0,4.0,0.4,0.9,2.0,6.0,0.2801590625,0.43831875,0.12199937499999997,-1.2,3.4000000000000004,1.1,5.0,24.0,440.0
101.0,1.0,120.0,440.0,5.0,0.0,0.0,0.0,98.0,615.0,0.0,0.0,440.0,2.0,0.0,0.0,0.0,4.0,0.4,0.9,2.0,6.0,0.2801590625,0.43831875,0.12199937499999997,-1.2,3.4000000000000004,1.1,5.0,24.0,440.0
101.0,2.0,1.0,870.0,1.0,3.0,2.0,2.0,97.0,1213.0,0.0,2.0,870.0,3.0,0.0,0.0,4.0,4.0,0.2,0.5,2.0,4.0,0.521875,0.575,0.46875,-0.8,1.0,0.09999999999999998,1.0,1.0,870.0
101.0,2.0,2.0,870.0,2.0,2.0,1.0,1.0,98.0,1462.0,0.0,1.0,870.0,3.0,0.0,0.0,4.0,4.0,0.2,0.5,2.0,4.0,0.521875,0.575,0.46875,-0.8,1.0,0.09999999999999998,1.0,1.0,870.0
101.0,2.0,3.0,870.0,3.0,1.0,1.0,1.0,97.0,1374.0,1.0,0.0,870.0,3.0,0.0,0.0,4.0,4.0,0.2,0.5,2.0,4.0,0.521875,0.575,0.46875,-0.8,1.0,0.09999999999999998,1.0,1.0,870.0
101.0,2.0,4.0,870.0,4.0,0.0,0.0,0.0,97.0,627.0,0.0,0.0,870.0,3.0,0.0,0.0,4.0,4.0,0.2,0.5,2.0,4.0,0.521875,0.575,0.46875,-0.8,1.0,0.09999999999999998,1.0,1.0,870.0
101.0,2.0,5.0,870.0,5.0,0.0,0.0,0.0,97.0,360.0,0.0,0.0,870.0,3.0,0.0,0.0,4.0,4.0,0.2,0.5,2.0,4.0,0.521875,0.575,0.46875,-0.8,1.0,0.09999999999999998,1.0,1.0,870.0
101.0,2.0,6.0,553.0,1.0,2.0,2.0,1.0,97.0,716.0,1.0,5.0,553.0,2.0,0.0,0.0,3.0,3.0,0.6,0.7,4.0,4.0,0.42962500000000003,0.47350000000000003,0.38575000000000004,0.9999999999999998,1.4999999999999996,1.2499999999999996,2.0,2.0,553.0
101.0,2.0,7.0,553.0,2.0,5.0,1.0,2.0,98.0,1527.0,1.0,5.0,553.0,2.0,0.0,0.0,3.0,3.0,0.6,0.7,4.0,4.0,0.42962500000000003,0.47350000000000003,0.38575000000000004,0.9999999999999998,1.4999999999999996,1.2499999999999996,2.0,2.0,553.0
101.0,2.0,8.0,553.0,3.0,5.0,2.0,1.0,97.0,1216.0,1.0,5.0,553.0,2.0,0.0,0.0,3.0,3.0,0.6,0.7,4.0,4.0,0.42962500000000003,0.47350000000000003,0.38575000000000004,0.9999999999999998,1.4999999999999996,1.2499999999999996,2.0,2.0,553.0
101.0,2.0,9.0,553.0,4.0,5.0,1.0,2.0,97.0,1656.0,0.0,4.0,553.0,2.0,0.0,0.0,3.0,3.0,0.6,0.7,4.0,4.0,0.42962500000000003,0.47350000000000003,0.38575000000000004,0.9999999999999998,1.4999999999999996,1.2499999999999996,2.0,2.0,553.0
101.0,2.0,10.0,553.0,5.0,4.0,1.0,1.0,97.0,1451.0,1.0,2.0,553.0,2.0,0.0,0.0,3.0,3.0,0.6,0.7,4.0,4.0,0.42962500000000003,0.47350000000000003,0.38575000000000004,0.9999999999999998,1.4999999999999996,1.2499999999999996,2.0,2.0,553.0
101.0,2.0,11.0,1276.0,1.0,3.0,1.0,2.0,98.0,1278.0,1.0,3.0,1276.0,3.0,0.0,0.0,0.0,0.0,0.7,0.8,2.0,6.0,0.4889156249999999,0.5589624999999999,0.4188687499999999,-0.6000000000000001,-0.3999999999999999,-0.5,4.0,3.0,1276.0
101.0,2.0,12.0,1276.0,2.0,3.0,1.0,2.0,98.0,1100.0,1.0,1.0,1276.0,3.0,0.0,0.0,0.0,0.0,0.7,0.8,2.0,6.0,0.4889156249999999,0.5589624999999999,0.4188687499999999,-0.6000000000000001,-0.3999999999999999,-0.5,4.0,3.0,1276.0
101.0,2.0,13.0,1276.0,3.0,1.0,2.0,1.0,97.0,1553.0,1.0,1.0,1276.0,3.0,0.0,0.0,0.0,0.0,0.7,0.8,2.0,6.0,0.4889156249999999,0.5589624999999999,0.4188687499999999,-0.6000000000000001,-0.3999999999999999,-0.5,4.0,3.0,1276.0
101.0,2.0,14.0,1276.0,4.0,1.0,1.0,1.0,97.0,1438.0,1.0,0.0,1276.0,3.0,0.0,0.0,0.0,0.0,0.7,0.8,2.0,6.0,0.4889156249999999,0.5589624999999999,0.4188687499999999,-0.6000000000000001,-0.3999999999999999,-0.5,4.0,3.0,1276.0
101.0,2.0,15.0,1276.0,5.0,0.0,0.0,0.0,98.0,576.0,0.0,0.0,1276.0,3.0,0.0,0.0,0.0,0.0,0.7,0.8,2.0,6.0,0.4889156249999999,0.5589624999999999,0.4188687499999999,-0.6000000000000001,-0.3999999999999999,-0.5,4.0,3.0,1276.0
101.0,2.0,16.0,448.0,1.0,2.0,1.0,2.0,97.0,1012.0,0.0,1.0,448.0,2.0,0.0,0.0,3.0,3.0,0.4,0.9,2.0,6.0,0.24648343749999996,0.371125,0.12184187499999997,2.220446049250313e-16,2.5,1.25,3.0,4.0,448.0
101.0,2.0,17.0,448.0,2.0,1.0,2.0,1.0,97.0,1017.0,1.0,4.0,448.0,2.0,0.0,0.0,3.0,3.0,0.4,0.9,2.0,6.0,0.24648343749999996,0.371125,0.12184187499999997,2.220446049250313e-16,2.5,1.25,3.0,4.0,448.0
101.0,2.0,18.0,448.0,3.0,4.0,2.0,1.0,97.0,1350.0,1.0,5.0,448.0,2.0,0.0,0.0,3.0,3.0,0.4,0.9,2.0,6.0,0.24648343749999996,0.371125,0.12184187499999997,2.220446049250313e-16,2.5,1.25,3.0,4.0,448.0
101.0,2.0,19.0,448.0,4.0,5.0,1.0,1.0,98.0,945.0,0.0,4.0,448.0,2.0,0.0,0.0,3.0,3.0,0.4,0.9,2.0,6.0,0.24648343749999996,0.371125,0.12184187499999997,2.220446049250313e-16,2.5,1.25,3.0,4.0,448.0
101.0,2.0,20.0,448.0,5.0,4.0,2.0,1.0,97.0,1197.0,1.0,5.0,448.0,2.0,0.0,0.0,3.0,3.0,0.4,0.9,2.0,6.0,0.24648343749999996,0.371125,0.12184187499999997,2.220446049250313e-16,2.5,1.25,3.0,4.0,448.0
101.0,2.0,21.0,248.0,1.0,2.0,2.0,2.0,98.0,937.0,1.0,5.0,248.0,2.0,0.0,0.0,1.0,3.0,0.2,0.9,2.0,6.0,0.3100896875,0.49462500000000004,0.12555437499999997,-1.4000000000000001,2.5,0.5499999999999999,1.0,5.0,248.0
101.0,2.0,22.0,248.0,2.0,5.0,2.0,2.0,98.0,1684.0,1.0,3.0,248.0,2.0,0.0,0.0,1.0,3.0,0.2,0.9,2.0,6.0,0.3100896875,0.49462500000000004,0.12555437499999997,-1.4000000000000001,2.5,0.5499999999999999,1.0,5.0,248.0
101.0,2.0,23.0,248.0,3.0,3.0,2.0,1.0,97.0,1806.0,1.0,5.0,248.0,2.0,0.0,0.0,1.0,3.0,0.2,0.9,2.0,6.0,0.3100896875,0.49462500000000004,0.12555437499999997,-1.4000000000000001,2.5,0.5499999999999999,1.0,5.0,248.0
101.0,2.0,24.0,248.0,4.0,5.0,1.0,1.0,98.0,1396.0,0.0,4.0,248.0,2.0,0.0,0.0,1.0,3.0,0.2,0.9,2.0,6.0,0.3100896875,0.49462500000000004,0.12555437499999997,-1.4000000000000001,2.5,0.5499999999999999,1.0,5.0,248.0
101.0,2.0,25.0,248.0,5.0,4.0,1.0,1.0,98.0,1025.0,0.0,3.0,248.0,2.0,0.0,0.0,1.0,3.0,0.2,0.9,2.0,6.0,0.3100896875,0.49462500000000004,0.12555437499999997,-1.4000000000000001,2.5,0.5499999999999999,1.0,5.0,248.0
101.0,2.0,26.0,1167.0,1.0,3.0,2.0,1.0,97.0,833.0,1.0,1.0,1167.0,3.0,0.0,0.0,2.0,4.0,0.5,0.7,2.0,6.0,0.2966125,0.3779,0.21532500000000004,0.0,2.1999999999999997,1.0999999999999999,1.0,6.0,1167.0
101.0,2.0,27.0,1167.0,2.0,1.0,2.0,2.0,98.0,1772.0,1.0,5.0,1167.0,3.0,0.0,0.0,2.0,4.0,0.5,0.7,2.0,6.0,0.2966125,0.3779,0.21532500000000004,0.0,2.1999999999999997,1.0999999999999999,1.0,6.0,1167.0
101.0,2.0,28.0,1167.0,3.0,5.0,2.0,2.0,98.0,1390.0,1.0,5.0,1167.0,3.0,0.0,0.0,2.0,4.0,0.5,0.7,2.0,6.0,0.2966125,0.3779,0.21532500000000004,0.0,2.1999999999999997,1.0999999999999999,1.0,6.0,1167.0
101.0,2.0,29.0,1167.0,4.0,5.0,2.0,1.0,97.0,1093.0,1.0,5.0,1167.0,3.0,0.0,0.0,2.0,4.0,0.5,0.7,2.0,6.0,0.2966125,0.3779,0.21532500000000004,0.0,2.1999999999999997,1.0999999999999999,1.0,6.0,1167.0
101.0,2.0,30.0,1167.0,5.0,5.0,2.0,2.0,98.0,1401.0,1.0,3.0,1167.0,3.0,0.0,0.0,2.0,4.0,0.5,0.7,2.0,6.0,0.2966125,0.3779,0.21532500000000004,0.0,2.1999999999999997,1.0999999999999999,1.0,6.0,1167.0
101.0,2.0,31.0,1152.0,1.0,3.0,2.0,2.0,97.0,1613.0,0.0,2.0,1152.0,3.0,0.0,0.0,2.0,4.0,0.5,0.6,4.0,4.0,0.33665625000000005,0.3515625,0.32175,0.0,1.5999999999999999,0.7999999999999999,5.0,7.0,1152.0
101.0,2.0,32.0,1152.0,2.0,2.0,1.0,1.0,98.0,907.0,0.0,1.0,1152.0,3.0,0.0,0.0,2.0,4.0,0.5,0.6,4.0,4.0,0.33665625000000005,0.3515625,0.32175,0.0,1.5999999999999999,0.7999999999999999,5.0,7.0,1152.0
101.0,2.0,33.0,1152.0,3.0,1.0,2.0,1.0,97.0,829.0,1.0,0.0,1152.0,3.0,0.0,0.0,2.0,4.0,0.5,0.6,4.0,4.0,0.33665625000000005,0.3515625,0.32175,0.0,1.5999999999999999,0.7999999999999999,5.0,7.0,1152.0
101.0,2.0,34.0,1152.0,4.0,0.0,0.0,0.0,98.0,613.0,0.0,0.0,1152.0,3.0,0.0,0.0,2.0,4.0,0.5,0.6,4.0,4.0,0.33665625000000005,0.3515625,0.32175,0.0,1.5999999999999999,0.7999999999999999,5.0,7.0,1152.0
101.0,2.0,35.0,1152.0,5.0,0.0,0.0,0.0,98.0,381.0,0.0,0.0,1152.0,3.0,0.0,0.0,2.0,4.0,0.5,0.6,4.0,4.0,0.33665625000000005,0.3515625,0.32175,0.0,1.5999999999999999,0.7999999999999999,5.0,7.0,1152.0
101.0,2.0,36.0,99.0,1.0,2.0,2.0,1.0,97.0,568.0,1.0,0.0,99.0,2.0,0.0,0.0,1.0,4.0,0.1,0.7,2.0,6.0,0.5149003125,0.6352875000000001,0.3945131250000001,-1.7,2.1999999999999997,0.2499999999999999,1.0,8.0,99.0
101.0,2.0,37.0,99.0,2.0,0.0,0.0,0.0,97.0,521.0,0.0,0.0,99.0,2.0,0.0,0.0,1.0,4.0,0.1,0.7,2.0,6.0,0.5149003125,0.6352875000000001,0.3945131250000001,-1.7,2.1999999999999997,0.2499999999999999,1.0,8.0,99.0
101.0,2.0,38.0,99.0,3.0,0.0,0.0,0.0,97.0,604.0,0.0,0.0,99.0,2.0,0.0,0.0,1.0,4.0,0.1,0.7,2.0,6.0,0.5149003125,0.6352875000000001,0.3945131250000001,-1.7,2.1999999999999997,0.2499999999999999,1.0,8.0,99.0
101.0,2.0,39.0,99.0,4.0,0.0,0.0,0.0,97.0,623.0,0.0,0.0,99.0,2.0,0.0,0.0,1.0,4.0,0.1,0.7,2.0,6.0,0.5149003125,0.6352875000000001,0.3945131250000001,-1.7,2.1999999999999997,0.2499999999999999,1.0,8.0,99.0
101.0,2.0,40.0,99.0,5.0,0.0,0.0,0.0,97.0,763.0,0.0,0.0,99.0,2.0,0.0,0.0,1.0,4.0,0.1,0.7,2.0,6.0,0.5149003125,0.6352875000000001,0.3945131250000001,-1.7,2.1999999999999997,0.2499999999999999,1.0,8.0,99.0
101.0,2.0,41.0,603.0,1.0,2.0,1.0,1.0,97.0,1000.0,1.0,2.0,603.0,2.0,0.0,0.0,0.0,2.0,0.7,0.8,2.0,6.0,0.36608187499999995,0.44784375,0.28431999999999996,-0.6000000000000001,1.2000000000000002,0.30000000000000004,1.0,9.0,603.0
101.0,2.0,42.0,603.0,2.0,2.0,2.0,1.0,98.0,1410.0,0.0,1.0,603.0,2.0,0.0,0.0,0.0,2.0,0.7,0.8,2.0,6.0,0.36608187499999995,0.44784375,0.28431999999999996,-0.6000000000000001,1.2000000000000002,0.30000000000000004,1.0,9.0,603.0
101.0,2.0,43.0,603.0,3.0,1.0,1.0,1.0,97.0,1361.0,1.0,1.0,603.0,2.0,0.0,0.0,0.0,2.0,0.7,0.8,2.0,6.0,0.36608187499999995,0.44784375,0.28431999999999996,-0.6000000000000001,1.2000000000000002,0.30000000000000004,1.0,9.0,603.0
101.0,2.0,44.0,603.0,4.0,1.0,1.0,2.0,98.0,1324.0,1.0,0.0,603.0,2.0,0.0,0.0,0.0,2.0,0.7,0.8,2.0,6.0,0.36608187499999995,0.44784375,0.28431999999999996,-0.6000000000000001,1.2000000000000002,0.30000000000000004,1.0,9.0,603.0
101.0,2.0,45.0,603.0,5.0,0.0,0.0,0.0,98.0,366.0,0.0,0.0,603.0,2.0,0.0,0.0,0.0,2.0,0.7,0.8,2.0,6.0,0.36608187499999995,0.44784375,0.28431999999999996,-0.6000000000000001,1.2000000000000002,0.30000000000000004,1.0,9.0,603.0
101.0,2.0,46.0,1277.0,1.0,3.0,1.0,1.0,97.0,1016.0,1.0,3.0,1277.0,3.0,0.0,0.0,0.0,1.0,0.7,0.8,2.0,6.0,0.2987556249999999,0.39776249999999996,0.19974874999999997,-0.6000000000000001,0.40000000000000013,-0.09999999999999998,1.0,10.0,1277.0
101.0,2.0,47.0,1277.0,2.0,3.0,2.0,1.0,97.0,1536.0,1.0,1.0,1277.0,3.0,0.0,0.0,0.0,1.0,0.7,0.8,2.0,6.0,0.2987556249999999,0.39776249999999996,0.19974874999999997,-0.6000000000000001,0.40000000000000013,-0.09999999999999998,1.0,10.0,1277.0
101.0,2.0,48.0,1277.0,3.0,1.0,2.0,1.0,97.0,1366.0,1.0,2.0,1277.0,3.0,0.0,0.0,0.0,1.0,0.7,0.8,2.0,6.0,0.2987556249999999,0.39776249999999996,0.19974874999999997,-0.6000000000000001,0.40000000000000013,-0.09999999999999998,1.0,10.0,1277.0
101.0,2.0,49.0,1277.0,4.0,2.0,1.0,1.0,98.0,1223.0,0.0,1.0,1277.0,3.0,0.0,0.0,0.0,1.0,0.7,0.8,2.0,6.0,0.2987556249999999,0.39776249999999996,0.19974874999999997,-0.6000000000000001,0.40000000000000013,-0.09999999999999998,1.0,10.0,1277.0
101.0,2.0,50.0,1277.0,5.0,1.0,2.0,1.0,97.0,1067.0,1.0,2.0,1277.0,3.0,0.0,0.0,0.0,1.0,0.7,0.8,2.0,6.0,0.2987556249999999,0.39776249999999996,0.19974874999999997,-0.6000000000000001,0.40000000000000013,-0.09999999999999998,1.0,10.0,1277.0
101.0,2.0,51.0,1267.0,1.0,3.0,2.0,1.0,97.0,1195.0,1.0,5.0,1267.0,3.0,0.0,0.0,1.0,2.0,0.7,0.7,4.0,4.0,0.21159000000000006,0.22261500000000006,0.20056500000000005,0.09999999999999987,0.7999999999999998,0.44999999999999984,1.0,11.0,1267.0
101.0,2.0,52.0,1267.0,2.0,5.0,1.0,2.0,98.0,1406.0,1.0,5.0,1267.0,3.0,0.0,0.0,1.0,2.0,0.7,0.7,4.0,4.0,0.21159000000000006,0.22261500000000006,0.20056500000000005,0.09999999999999987,0.7999999999999998,0.44999999999999984,1.0,11.0,1267.0
101.0,2.0,53.0,1267.0,3.0,5.0,2.0,1.0,97.0,1224.0,1.0,5.0,1267.0,3.0,0.0,0.0,1.0,2.0,0.7,0.7,4.0,4.0,0.21159000000000006,0.22261500000000006,0.20056500000000005,0.09999999999999987,0.7999999999999998,0.44999999999999984,1.0,11.0,1267.0
101.0,2.0,54.0,1267.0,4.0,5.0,1.0,2.0,98.0,1093.0,1.0,5.0,1267.0,3.0,0.0,0.0,1.0,2.0,0.7,0.7,4.0,4.0,0.21159000000000006,0.22261500000000006,0.20056500000000005,0.09999999999999987,0.7999999999999998,0.44999999999999984,1.0,11.0,1267.0
101.0,2.0,55.0,1267.0,5.0,5.0,1.0,1.0,98.0,1476.0,0.0,4.0,1267.0,3.0,0.0,0.0,1.0,2.0,0.7,0.7,4.0,4.0,0.21159000000000006,0.22261500000000006,0.20056500000000005,0.09999999999999987,0.7999999999999998,0.44999999999999984,1.0,11.0,1267.0
101.0,2.0,56.0,1820.0,1.0,4.0,2.0,1.0,97.0,836.0,1.0,5.0,1820.0,4.0,0.0,0.0,0.0,4.0,0.5,0.6,2.0,5.0,0.3408375,0.37075,0.310925,-1.0,1.5999999999999999,0.29999999999999993,1.0,12.0,1820.0
101.0,2.0,57.0,1820.0,2.0,5.0,2.0,2.0,98.0,965.0,1.0,5.0,1820.0,4.0,0.0,0.0,0.0,4.0,0.5,0.6,2.0,5.0,0.3408375,0.37075,0.310925,-1.0,1.5999999999999999,0.29999999999999993,1.0,12.0,1820.0
101.0,2.0,58.0,1820.0,3.0,5.0,2.0,2.0,98.0,1032.0,1.0,3.0,1820.0,4.0,0.0,0.0,0.0,4.0,0.5,0.6,2.0,5.0,0.3408375,0.37075,0.310925,-1.0,1.5999999999999999,0.29999999999999993,1.0,12.0,1820.0
101.0,2.0,59.0,1820.0,4.0,3.0,1.0,2.0,98.0,1568.0,1.0,3.0,1820.0,4.0,0.0,0.0,0.0,4.0,0.5,0.6,2.0,5.0,0.3408375,0.37075,0.310925,-1.0,1.5999999999999999,0.29999999999999993,1.0,12.0,1820.0
101.0,2.0,60.0,1820.0,5.0,3.0,1.0,1.0,98.0,1197.0,0.0,2.0,1820.0,4.0,0.0,0.0,0.0,4.0,0.5,0.6,2.0,5.0,0.3408375,0.37075,0.310925,-1.0,1.5999999999999999,0.29999999999999993,1.0,12.0,1820.0
101.0,2.0,61.0,1652.0,1.0,4.0,1.0,2.0,97.0,1036.0,0.0,3.0,1652.0,4.0,0.0,0.0,0.0,1.0,0.30000000000000004,0.6,2.0,5.0,0.4648675000000001,0.5239,0.40583500000000006,-1.4,-0.20000000000000007,-0.8,1.0,13.0,1652.0
101.0,2.0,62.0,1652.0,2.0,3.0,1.0,1.0,97.0,1788.0,1.0,1.0,1652.0,4.0,0.0,0.0,0.0,1.0,0.30000000000000004,0.6,2.0,5.0,0.4648675000000001,0.5239,0.40583500000000006,-1.4,-0.20000000000000007,-0.8,1.0,13.0,1652.0
101.0,2.0,63.0,1652.0,3.0,1.0,1.0,1.0,97.0,1219.0,1.0,0.0,1652.0,4.0,0.0,0.0,0.0,1.0,0.30000000000000004,0.6,2.0,5.0,0.4648675000000001,0.5239,0.40583500000000006,-1.4,-0.20000000000000007,-0.8,1.0,13.0,1652.0
101.0,2.0,64.0,1652.0,4.0,0.0,0.0,0.0,98.0,772.0,0.0,0.0,1652.0,4.0,0.0,0.0,0.0,1.0,0.30000000000000004,0.6,2.0,5.0,0.4648675000000001,0.5239,0.40583500000000006,-1.4,-0.20000000000000007,-0.8,1.0,13.0,1652.0
101.0,2.0,65.0,1652.0,5.0,0.0,0.0,0.0,98.0,515.0,0.0,0.0,1652.0,4.0,0.0,0.0,0.0,1.0,0.30000000000000004,0.6,2.0,5.0,0.4648675000000001,0.5239,0.40583500000000006,-1.4,-0.20000000000000007,-0.8,1.0,13.0,1652.0
101.0,2.0,66.0,661.0,1.0,2.0,1.0,2.0,98.0,1057.0,1.0,2.0,661.0,2.0,0.0,0.0,0.0,0.0,0.9,0.9,4.0,4.0,0.4095099999999999,0.4095099999999999,0.4095099999999999,-0.19999999999999996,-0.19999999999999996,-0.19999999999999996,2.0,14.0,661.0
101.0,2.0,67.0,661.0,2.0,2.0,2.0,1.0,98.0,977.0,0.0,1.0,661.0,2.0,0.0,0.0,0.0,0.0,0.9,0.9,4.0,4.0,0.4095099999999999,0.4095099999999999,0.4095099999999999,-0.19999999999999996,-0.19999999999999996,-0.19999999999999996,2.0,14.0,661.0
101.0,2.0,68.0,661.0,3.0,1.0,2.0,2.0,98.0,1056.0,1.0,1.0,661.0,2.0,0.0,0.0,0.0,0.0,0.9,0.9,4.0,4.0,0.4095099999999999,0.4095099999999999,0.4095099999999999,-0.19999999999999996,-0.19999999999999996,-0.19999999999999996,2.0,14.0,661.0
101.0,2.0,69.0,661.0,4.0,1.0,2.0,1.0,97.0,1166.0,1.0,0.0,661.0,2.0,0.0,0.0,0.0,0.0,0.9,0.9,4.0,4.0,0.4095099999999999,0.4095099999999999,0.4095099999999999,-0.19999999999999996,-0.19999999999999996,-0.19999999999999996,2.0,14.0,661.0
101.0,2.0,70.0,661.0,5.0,0.0,0.0,0.0,98.0,576.0,0.0,0.0,661.0,2.0,0.0,0.0,0.0,0.0,0.9,0.9,4.0,4.0,0.4095099999999999,0.4095099999999999,0.4095099999999999,-0.19999999999999996,-0.19999999999999996,-0.19999999999999996,2.0,14.0,661.0
101.0,2.0,71.0,979.0,1.0,3.0,2.0,1.0,97.0,996.0,1.0,1.0,979.0,3.0,0.0,0.0,0.0,3.0,0.30000000000000004,0.6,2.0,5.0,0.4719250000000001,0.5404375,0.4034125,-1.4,0.9999999999999998,-0.20000000000000007,2.0,15.0,979.0
101.0,2.0,72.0,979.0,2.0,1.0,2.0,1.0,97.0,1100.0,1.0,4.0,979.0,3.0,0.0,0.0,0.0,3.0,0.30000000000000004,0.6,2.0,5.0,0.4719250000000001,0.5404375,0.4034125,-1.4,0.9999999999999998,-0.20000000000000007,2.0,15.0,979.0
101.0,2.0,73.0,979.0,3.0,4.0,1.0,2.0,97.0,1268.0,0.0,3.0,979.0,3.0,0.0,0.0,0.0,3.0,0.30000000000000004,0.6,2.0,5.0,0.4719250000000001,0.5404375,0.4034125,-1.4,0.9999999999999998,-0.20000000000000007,2.0,15.0,979.0
101.0,2.0,74.0,979.0,4.0,3.0,2.0,2.0,98.0,1013.0,1.0,1.0,979.0,3.0,0.0,0.0,0.0,3.0,0.30000000000000004,0.6,2.0,5.0,0.4719250000000001,0.5404375,0.4034125,-1.4,0.9999999999999998,-0.20000000000000007,2.0,15.0,979.0
101.0,2.0,75.0,979.0,5.0,1.0,1.0,2.0,97.0,1211.0,0.0,0.0,979.0,3.0,0.0,0.0,0.0,3.0,0.30000000000000004,0.6,2.0,5.0,0.4719250000000001,0.5404375,0.4034125,-1.4,0.9999999999999998,-0.20000000000000007,2.0,15.0,979.0
101.0,2.0,76.0,1162.0,1.0,3.0,2.0,1.0,97.0,1269.0,1.0,1.0,1162.0,3.0,0.0,0.0,1.0,2.0,0.5,0.7,2.0,6.0,0.35393531250000004,0.45937500000000003,0.248495625,-0.5,0.7999999999999998,0.1499999999999999,2.0,16.0,1162.0
101.0,2.0,77.0,1162.0,2.0,1.0,2.0,1.0,97.0,1370.0,1.0,3.0,1162.0,3.0,0.0,0.0,1.0,2.0,0.5,0.7,2.0,6.0,0.35393531250000004,0.45937500000000003,0.248495625,-0.5,0.7999999999999998,0.1499999999999999,2.0,16.0,1162.0
101.0,2.0,78.0,1162.0,3.0,3.0,2.0,2.0,97.0,1386.0,0.0,2.0,1162.0,3.0,0.0,0.0,1.0,2.0,0.5,0.7,2.0,6.0,0.35393531250000004,0.45937500000000003,0.248495625,-0.5,0.7999999999999998,0.1499999999999999,2.0,16.0,1162.0
101.0,2.0,79.0,1162.0,4.0,2.0,1.0,2.0,97.0,1459.0,0.0,1.0,1162.0,3.0,0.0,0.0,1.0,2.0,0.5,0.7,2.0,6.0,0.35393531250000004,0.45937500000000003,0.248495625,-0.5,0.7999999999999998,0.1499999999999999,2.0,16.0,1162.0
101.0,2.0,80.0,1162.0,5.0,1.0,1.0,1.0,97.0,924.0,1.0,0.0,1162.0,3.0,0.0,0.0,1.0,2.0,0.5,0.7,2.0,6.0,0.35393531250000004,0.45937500000000003,0.248495625,-0.5,0.7999999999999998,0.1499999999999999,2.0,16.0,1162.0
101.0,2.0,81.0,534.0,1.0,2.0,1.0,1.0,97.0,972.0,1.0,3.0,534.0,2.0,0.0,0.0,1.0,4.0,0.6,0.6,4.0,4.0,0.5248,0.5536,0.49600000000000005,-0.20000000000000007,1.5999999999999999,0.7,1.0,17.0,534.0
101.0,2.0,82.0,534.0,2.0,3.0,1.0,2.0,97.0,1489.0,0.0,2.0,534.0,2.0,0.0,0.0,1.0,4.0,0.6,0.6,4.0,4.0,0.5248,0.5536,0.49600000000000005,-0.20000000000000007,1.5999999999999999,0.7,1.0,17.0,534.0
101.0,2.0,83.0,534.0,3.0,2.0,2.0,1.0,97.0,945.0,1.0,5.0,534.0,2.0,0.0,0.0,1.0,4.0,0.6,0.6,4.0,4.0,0.5248,0.5536,0.49600000000000005,-0.20000000000000007,1.5999999999999999,0.7,1.0,17.0,534.0
101.0,2.0,84.0,534.0,4.0,5.0,1.0,2.0,97.0,1237.0,0.0,4.0,534.0,2.0,0.0,0.0,1.0,4.0,0.6,0.6,4.0,4.0,0.5248,0.5536,0.49600000000000005,-0.20000000000000007,1.5999999999999999,0.7,1.0,17.0,534.0
101.0,2.0,85.0,534.0,5.0,4.0,1.0,1.0,97.0,914.0,1.0,5.0,534.0,2.0,0.0,0.0,1.0,4.0,0.6,0.6,4.0,4.0,0.5248,0.5536,0.49600000000000005,-0.20000000000000007,1.5999999999999999,0.7,1.0,17.0,534.0
101.0,2.0,86.0,1843.0,1.0,4.0,2.0,2.0,98.0,1107.0,1.0,5.0,1843.0,4.0,0.0,0.0,3.0,3.0,0.5,0.7,2.0,6.0,0.21638750000000007,0.24805000000000002,0.18472500000000003,0.5,1.4999999999999996,0.9999999999999998,1.0,18.0,1843.0
101.0,2.0,87.0,1843.0,2.0,5.0,2.0,1.0,97.0,1353.0,1.0,3.0,1843.0,4.0,0.0,0.0,3.0,3.0,0.5,0.7,2.0,6.0,0.21638750000000007,0.24805000000000002,0.18472500000000003,0.5,1.4999999999999996,0.9999999999999998,1.0,18.0,1843.0
101.0,2.0,88.0,1843.0,3.0,3.0,2.0,2.0,98.0,790.0,1.0,1.0,1843.0,4.0,0.0,0.0,3.0,3.0,0.5,0.7,2.0,6.0,0.21638750000000007,0.24805000000000002,0.18472500000000003,0.5,1.4999999999999996,0.9999999999999998,1.0,18.0,1843.0
101.0,2.0,89.0,1843.0,4.0,1.0,1.0,1.0,97.0,1372.0,1.0,0.0,1843.0,4.0,0.0,0.0,3.0,3.0,0.5,0.7,2.0,6.0,0.21638750000000007,0.24805000000000002,0.18472500000000003,0.5,1.4999999999999996,0.9999999999999998,1.0,18.0,1843.0
101.0,2.0,90.0,1843.0,5.0,0.0,0.0,0.0,97.0,534.0,0.0,0.0,1843.0,4.0,0.0,0.0,3.0,3.0,0.5,0.7,2.0,6.0,0.21638750000000007,0.24805000000000002,0.18472500000000003,0.5,1.4999999999999996,0.9999999999999998,1.0,18.0,1843.0
101.0,2.0,91.0,1544.0,1.0,4.0,2.0,1.0,97.0,750.0,1.0,2.0,1544.0,4.0,0.0,0.0,3.0,4.0,0.2,0.5,2.0,4.0,0.44999999999999996,0.44999999999999996,0.44999999999999996,-1.0,1.0,0.0,1.0,19.0,1544.0
101.0,2.0,92.0,1544.0,2.0,2.0,2.0,1.0,97.0,703.0,1.0,0.0,1544.0,4.0,0.0,0.0,3.0,4.0,0.2,0.5,2.0,4.0,0.44999999999999996,0.44999999999999996,0.44999999999999996,-1.0,1.0,0.0,1.0,19.0,1544.0
101.0,2.0,93.0,1544.0,3.0,0.0,0.0,0.0,97.0,581.0,0.0,0.0,1544.0,4.0,0.0,0.0,3.0,4.0,0.2,0.5,2.0,4.0,0.44999999999999996,0.44999999999999996,0.44999999999999996,-1.0,1.0,0.0,1.0,19.0,1544.0
101.0,2.0,94.0,1544.0,4.0,0.0,0.0,0.0,97.0,504.0,0.0,0.0,1544.0,4.0,0.0,0.0,3.0,4.0,0.2,0.5,2.0,4.0,0.44999999999999996,0.44999999999999996,0.44999999999999996,-1.0,1.0,0.0,1.0,19.0,1544.0
101.0,2.0,95.0,1544.0,5.0,0.0,0.0,0.0,,2007.0,0.0,0.0,1544.0,4.0,0.0,0.0,3.0,4.0,0.2,0.5,2.0,4.0,0.44999999999999996,0.44999999999999996,0.44999999999999996,-1.0,1.0,0.0,1.0,19.0,1544.0
101.0,2.0,96.0,330.0,1.0,2.0,2.0,2.0,98.0,783.0,1.0,0.0,330.0,2.0,0.0,0.0,4.0,4.0,0.30000000000000004,0.7,2.0,6.0,0.45063437500000003,0.516875,0.38439375000000003,-0.19999999999999973,2.1999999999999997,1.0,1.0,20.0,330.0
101.0,2.0,97.0,330.0,2.0,0.0,0.0,0.0,98.0,563.0,0.0,0.0,330.0,2.0,0.0,0.0,4.0,4.0,0.30000000000000004,0.7,2.0,6.0,0.45063437500000003,0.516875,0.38439375000000003,-0.19999999999999973,2.1999999999999997,1.0,1.0,20.0,330.0
101.0,2.0,98.0,330.0,3.0,0.0,0.0,0.0,98.0,654.0,0.0,0.0,330.0,2.0,0.0,0.0,4.0,4.0,0.30000000000000004,0.7,2.0,6.0,0.45063437500000003,0.516875,0.38439375000000003,-0.19999999999999973,2.1999999999999997,1.0,1.0,20.0,330.0
101.0,2.0,99.0,330.0,4.0,0.0,0.0,0.0,98.0,718.0,0.0,0.0,330.0,2.0,0.0,0.0,4.0,4.0,0.30000000000000004,0.7,2.0,6.0,0.45063437500000003,0.516875,0.38439375000000003,-0.19999999999999973,2.1999999999999997,1.0,1.0,20.0,330.0
101.0,2.0,100.0,330.0,5.0,0.0,0.0,0.0,98.0,793.0,0.0,0.0,330.0,2.0,0.0,0.0,4.0,4.0,0.30000000000000004,0.7,2.0,6.0,0.45063437500000003,0.516875,0.38439375000000003,-0.19999999999999973,2.1999999999999997,1.0,1.0,20.0,330.0
101.0,2.0,101.0,1151.0,1.0,3.0,1.0,2.0,98.0,804.0,1.0,1.0,1151.0,3.0,0.0,0.0,2.0,3.0,0.5,0.6,4.0,4.0,0.36399375,0.3819375,0.34604999999999997,0.0,0.9999999999999998,0.4999999999999999,1.0,21.0,1151.0
101.0,2.0,102.0,1151.0,2.0,1.0,2.0,1.0,97.0,762.0,1.0,0.0,1151.0,3.0,0.0,0.0,2.0,3.0,0.5,0.6,4.0,4.0,0.36399375,0.3819375,0.34604999999999997,0.0,0.9999999999999998,0.4999999999999999,1.0,21.0,1151.0
101.0,2.0,103.0,1151.0,3.0,0.0,0.0,0.0,98.0,736.0,0.0,0.0,1151.0,3.0,0.0,0.0,2.0,3.0,0.5,0.6,4.0,4.0,0.36399375,0.3819375,0.34604999999999997,0.0,0.9999999999999998,0.4999999999999999,1.0,21.0,1151.0
101.0,2.0,104.0,1151.0,4.0,0.0,0.0,0.0,98.0,602.0,0.0,0.0,1151.0,3.0,0.0,0.0,2.0,3.0,0.5,0.6,4.0,4.0,0.36399375,0.3819375,0.34604999999999997,0.0,0.9999999999999998,0.4999999999999999,1.0,21.0,1151.0
101.0,2.0,105.0,1151.0,5.0,0.0,0.0,0.0,,2000.0,0.0,0.0,1151.0,3.0,0.0,0.0,2.0,3.0,0.5,0.6,4.0,4.0,0.36399375,0.3819375,0.34604999999999997,0.0,0.9999999999999998,0.4999999999999999,1.0,21.0,1151.0
101.0,2.0,106.0,1425.0,1.0,4.0,1.0,2.0,97.0,883.0,0.0,3.0,1425.0,4.0,0.0,0.0,4.0,4.0,0.1,0.5,2.0,4.0,0.475,0.475,0.475,-1.4,1.0,-0.19999999999999996,1.0,22.0,1425.0
101.0,2.0,107.0,1425.0,2.0,3.0,1.0,1.0,97.0,1649.0,1.0,1.0,1425.0,4.0,0.0,0.0,4.0,4.0,0.1,0.5,2.0,4.0,0.475,0.475,0.475,-1.4,1.0,-0.19999999999999996,1.0,22.0,1425.0
101.0,2.0,108.0,1425.0,3.0,1.0,2.0,1.0,97.0,1660.0,1.0,5.0,1425.0,4.0,0.0,0.0,4.0,4.0,0.1,0.5,2.0,4.0,0.475,0.475,0.475,-1.4,1.0,-0.19999999999999996,1.0,22.0,1425.0
101.0,2.0,109.0,1425.0,4.0,5.0,1.0,1.0,98.0,1020.0,0.0,4.0,1425.0,4.0,0.0,0.0,4.0,4.0,0.1,0.5,2.0,4.0,0.475,0.475,0.475,-1.4,1.0,-0.19999999999999996,1.0,22.0,1425.0
101.0,2.0,110.0,1425.0,5.0,4.0,1.0,1.0,98.0,1444.0,0.0,3.0,1425.0,4.0,0.0,0.0,4.0,4.0,0.1,0.5,2.0,4.0,0.475,0.475,0.475,-1.4,1.0,-0.19999999999999996,1.0,22.0,1425.0
101.0,2.0,111.0,1656.0,1.0,4.0,1.0,1.0,98.0,1047.0,0.0,3.0,1656.0,4.0,0.0,0.0,1.0,1.0,0.30000000000000004,0.6,2.0,5.0,0.45115000000000005,0.5042500000000001,0.39805000000000007,-1.0999999999999999,-0.20000000000000007,-0.6499999999999999,3.0,23.0,1656.0
101.0,2.0,112.0,1656.0,2.0,3.0,1.0,2.0,97.0,1522.0,0.0,2.0,1656.0,4.0,0.0,0.0,1.0,1.0,0.30000000000000004,0.6,2.0,5.0,0.45115000000000005,0.5042500000000001,0.39805000000000007,-1.0999999999999999,-0.20000000000000007,-0.6499999999999999,3.0,23.0,1656.0
101.0,2.0,113.0,1656.0,3.0,2.0,2.0,1.0,97.0,763.0,1.0,3.0,1656.0,4.0,0.0,0.0,1.0,1.0,0.30000000000000004,0.6,2.0,5.0,0.45115000000000005,0.5042500000000001,0.39805000000000007,-1.0999999999999999,-0.20000000000000007,-0.6499999999999999,3.0,23.0,1656.0
101.0,2.0,114.0,1656.0,4.0,3.0,1.0,2.0,97.0,920.0,0.0,2.0,1656.0,4.0,0.0,0.0,1.0,1.0,0.30000000000000004,0.6,2.0,5.0,0.45115000000000005,0.5042500000000001,0.39805000000000007,-1.0999999999999999,-0.20000000000000007,-0.6499999999999999,3.0,23.0,1656.0
101.0,2.0,115.0,1656.0,5.0,2.0,2.0,1.0,97.0,1752.0,1.0,0.0,1656.0,4.0,0.0,0.0,1.0,1.0,0.30000000000000004,0.6,2.0,5.0,0.45115000000000005,0.5042500000000001,0.39805000000000007,-1.0999999999999999,-0.20000000000000007,-0.6499999999999999,3.0,23.0,1656.0
101.0,2.0,116.0,1448.0,1.0,4.0,2.0,2.0,98.0,1121.0,1.0,2.0,1448.0,4.0,0.0,0.0,1.0,3.0,0.1,0.7,2.0,6.0,0.2859403125,0.33403125000000006,0.23784937500000009,-1.7,1.4999999999999996,-0.1000000000000002,2.0,24.0,1448.0
101.0,2.0,117.0,1448.0,2.0,2.0,1.0,1.0,98.0,1418.0,0.0,1.0,1448.0,4.0,0.0,0.0,1.0,3.0,0.1,0.7,2.0,6.0,0.2859403125,0.33403125000000006,0.23784937500000009,-1.7,1.4999999999999996,-0.1000000000000002,2.0,24.0,1448.0
101.0,2.0,118.0,1448.0,3.0,1.0,1.0,2.0,98.0,1280.0,1.0,0.0,1448.0,4.0,0.0,0.0,1.0,3.0,0.1,0.7,2.0,6.0,0.2859403125,0.33403125000000006,0.23784937500000009,-1.7,1.4999999999999996,-0.1000000000000002,2.0,24.0,1448.0
101.0,2.0,119.0,1448.0,4.0,0.0,0.0,0.0,98.0,1293.0,0.0,0.0,1448.0,4.0,0.0,0.0,1.0,3.0,0.1,0.7,2.0,6.0,0.2859403125,0.33403125000000006,0.23784937500000009,-1.7,1.4999999999999996,-0.1000000000000002,2.0,24.0,1448.0
101.0,2.0,120.0,1448.0,5.0,0.0,0.0,0.0,98.0,464.0,0.0,0.0,1448.0,4.0,0.0,0.0,1.0,3.0,0.1,0.7,2.0,6.0,0.2859403125,0.33403125000000006,0.23784937500000009,-1.7,1.4999999999999996,-0.1000000000000002,2.0,24.0,1448.0
101.0,3.0,1.0,592.0,1.0,2.0,2.0,2.0,97.0,1017.0,0.0,1.0,592.0,2.0,0.0,0.0,1.0,2.0,0.7,0.7,4.0,4.0,0.39938250000000014,0.41371500000000005,0.38505000000000006,0.09999999999999987,0.7999999999999998,0.44999999999999984,1.0,1.0,592.0
101.0,3.0,2.0,592.0,2.0,1.0,2.0,2.0,98.0,813.0,1.0,3.0,592.0,2.0,0.0,0.0,1.0,2.0,0.7,0.7,4.0,4.0,0.39938250000000014,0.41371500000000005,0.38505000000000006,0.09999999999999987,0.7999999999999998,0.44999999999999984,1.0,1.0,592.0
101.0,3.0,3.0,592.0,3.0,3.0,1.0,2.0,98.0,1197.0,1.0,4.0,592.0,2.0,0.0,0.0,1.0,2.0,0.7,0.7,4.0,4.0,0.39938250000000014,0.41371500000000005,0.38505000000000006,0.09999999999999987,0.7999999999999998,0.44999999999999984,1.0,1.0,592.0
101.0,3.0,4.0,592.0,4.0,4.0,2.0,1.0,97.0,1104.0,1.0,5.0,592.0,2.0,0.0,0.0,1.0,2.0,0.7,0.7,4.0,4.0,0.39938250000000014,0.41371500000000005,0.38505000000000006,0.09999999999999987,0.7999999999999998,0.44999999999999984,1.0,1.0,592.0
101.0,3.0,5.0,592.0,5.0,5.0,1.0,2.0,97.0,1583.0,0.0,4.0,592.0,2.0,0.0,0.0,1.0,2.0,0.7,0.7,4.0,4.0,0.39938250000000014,0.41371500000000005,0.38505000000000006,0.09999999999999987,0.7999999999999998,0.44999999999999984,1.0,1.0,592.0
101.0,3.0,6.0,596.0,1.0,2.0,2.0,2.0,98.0,1097.0,1.0,5.0,596.0,2.0,0.0,0.0,2.0,3.0,0.7,0.7,4.0,4.0,0.3630000000000001,0.36300000000000004,0.36300000000000004,0.7999999999999998,1.4999999999999996,1.1499999999999997,1.0,2.0,596.0
101.0,3.0,7.0,596.0,2.0,5.0,2.0,2.0,97.0,1300.0,0.0,4.0,596.0,2.0,0.0,0.0,2.0,3.0,0.7,0.7,4.0,4.0,0.3630000000000001,0.36300000000000004,0.36300000000000004,0.7999999999999998,1.4999999999999996,1.1499999999999997,1.0,2.0,596.0
101.0,3.0,8.0,596.0,3.0,4.0,2.0,1.0,97.0,705.0,1.0,5.0,596.0,2.0,0.0,0.0,2.0,3.0,0.7,0.7,4.0,4.0,0.3630000000000001,0.36300000000000004,0.36300000000000004,0.7999999999999998,1.4999999999999996,1.1499999999999997,1.0,2.0,596.0
101.0,3.0,9.0,596.0,4.0,5.0,1.0,1.0,97.0,1270.0,1.0,5.0,596.0,2.0,0.0,0.0,2.0,3.0,0.7,0.7,4.0,4.0,0.3630000000000001,0.36300000000000004,0.36300000000000004,0.7999999999999998,1.4999999999999996,1.1499999999999997,1.0,2.0,596.0
101.0,3.0,10.0,596.0,5.0,5.0,2.0,1.0,97.0,790.0,1.0,3.0,596.0,2.0,0.0,0.0,2.0,3.0,0.7,0.7,4.0,4.0,0.3630000000000001,0.36300000000000004,0.36300000000000004,0.7999999999999998,1.4999999999999996,1.1499999999999997,1.0,2.0,596.0
101.0,3.0,11.0,1183.0,1.0,3.0,2.0,2.0,98.0,1172.0,1.0,5.0,1183.0,3.0,0.0,0.0,3.0,3.0,0.5,0.8,2.0,6.0,0.20443499999999995,0.28364999999999996,0.12521999999999997,0.5,2.0000000000000004,1.2500000000000002,2.0,3.0,1183.0
101.0,3.0,12.0,1183.0,2.0,5.0,2.0,1.0,97.0,899.0,1.0,5.0,1183.0,3.0,0.0,0.0,3.0,3.0,0.5,0.8,2.0,6.0,0.20443499999999995,0.28364999999999996,0.12521999999999997,0.5,2.0000000000000004,1.2500000000000002,2.0,3.0,1183.0
101.0,3.0,13.0,1183.0,3.0,5.0,2.0,1.0,97.0,1192.0,1.0,3.0,1183.0,3.0,0.0,0.0,3.0,3.0,0.5,0.8,2.0,6.0,0.20443499999999995,0.28364999999999996,0.12521999999999997,0.5,2.0000000000000004,1.2500000000000002,2.0,3.0,1183.0
101.0,3.0,14.0,1183.0,4.0,3.0,2.0,1.0,97.0,1523.0,1.0,5.0,1183.0,3.0,0.0,0.0,3.0,3.0,0.5,0.8,2.0,6.0,0.20443499999999995,0.28364999999999996,0.12521999999999997,0.5,2.0000000000000004,1.2500000000000002,2.0,3.0,1183.0
101.0,3.0,15.0,1183.0,5.0,5.0,1.0,2.0,97.0,1138.0,0.0,4.0,1183.0,3.0,0.0,0.0,3.0,3.0,0.5,0.8,2.0,6.0,0.20443499999999995,0.28364999999999996,0.12521999999999997,0.5,2.0000000000000004,1.2500000000000002,2.0,3.0,1183.0
101.0,3.0,16.0,1768.0,1.0,4.0,1.0,2.0,97.0,1147.0,0.0,3.0,1768.0,4.0,0.0,0.0,3.0,3.0,0.4,0.7,2.0,6.0,0.23272500000000002,0.268275,0.19717500000000002,2.220446049250313e-16,1.4999999999999996,0.7499999999999999,1.0,4.0,1768.0
101.0,3.0,17.0,1768.0,2.0,3.0,2.0,2.0,98.0,1023.0,1.0,1.0,1768.0,4.0,0.0,0.0,3.0,3.0,0.4,0.7,2.0,6.0,0.23272500000000002,0.268275,0.19717500000000002,2.220446049250313e-16,1.4999999999999996,0.7499999999999999,1.0,4.0,1768.0
101.0,3.0,18.0,1768.0,3.0,1.0,2.0,2.0,98.0,1218.0,1.0,4.0,1768.0,4.0,0.0,0.0,3.0,3.0,0.4,0.7,2.0,6.0,0.23272500000000002,0.268275,0.19717500000000002,2.220446049250313e-16,1.4999999999999996,0.7499999999999999,1.0,4.0,1768.0
101.0,3.0,19.0,1768.0,4.0,4.0,1.0,2.0,98.0,1641.0,1.0,2.0,1768.0,4.0,0.0,0.0,3.0,3.0,0.4,0.7,2.0,6.0,0.23272500000000002,0.268275,0.19717500000000002,2.220446049250313e-16,1.4999999999999996,0.7499999999999999,1.0,4.0,1768.0
101.0,3.0,20.0,1768.0,5.0,2.0,2.0,2.0,98.0,873.0,1.0,5.0,1768.0,4.0,0.0,0.0,3.0,3.0,0.4,0.7,2.0,6.0,0.23272500000000002,0.268275,0.19717500000000002,2.220446049250313e-16,1.4999999999999996,0.7499999999999999,1.0,4.0,1768.0
101.0,3.0,21.0,1752.0,1.0,4.0,1.0,2.0,97.0,1213.0,0.0,3.0,1752.0,4.0,0.0,0.0,2.0,4.0,0.4,0.6,2.0,5.0,0.32589999999999997,0.34500000000000003,0.3068,-0.3999999999999999,1.5999999999999999,0.6,1.0,5.0,1752.0
101.0,3.0,22.0,1752.0,2.0,3.0,1.0,2.0,97.0,875.0,0.0,2.0,1752.0,4.0,0.0,0.0,2.0,4.0,0.4,0.6,2.0,5.0,0.32589999999999997,0.34500000000000003,0.3068,-0.3999999999999999,1.5999999999999999,0.6,1.0,5.0,1752.0
101.0,3.0,23.0,1752.0,3.0,2.0,2.0,2.0,98.0,837.0,1.0,5.0,1752.0,4.0,0.0,0.0,2.0,4.0,0.4,0.6,2.0,5.0,0.32589999999999997,0.34500000000000003,0.3068,-0.3999999999999999,1.5999999999999999,0.6,1.0,5.0,1752.0
101.0,3.0,24.0,1752.0,4.0,5.0,1.0,2.0,97.0,993.0,0.0,4.0,1752.0,4.0,0.0,0.0,2.0,4.0,0.4,0.6,2.0,5.0,0.32589999999999997,0.34500000000000003,0.3068,-0.3999999999999999,1.5999999999999999,0.6,1.0,5.0,1752.0
101.0,3.0,25.0,1752.0,5.0,4.0,2.0,2.0,98.0,914.0,1.0,2.0,1752.0,4.0,0.0,0.0,2.0,4.0,0.4,0.6,2.0,5.0,0.32589999999999997,0.34500000000000003,0.3068,-0.3999999999999999,1.5999999999999999,0.6,1.0,5.0,1752.0
101.0,3.0,26.0,802.0,1.0,3.0,2.0,2.0,98.0,862.0,1.0,5.0,802.0,3.0,0.0,0.0,1.0,2.0,0.1,0.9,2.0,6.0,0.21177093749999998,0.33675,0.08679187499999998,-1.7,1.6,-0.04999999999999993,1.0,6.0,802.0
101.0,3.0,27.0,802.0,2.0,5.0,1.0,1.0,98.0,898.0,0.0,4.0,802.0,3.0,0.0,0.0,1.0,2.0,0.1,0.9,2.0,6.0,0.21177093749999998,0.33675,0.08679187499999998,-1.7,1.6,-0.04999999999999993,1.0,6.0,802.0
101.0,3.0,28.0,802.0,3.0,4.0,2.0,2.0,98.0,854.0,1.0,5.0,802.0,3.0,0.0,0.0,1.0,2.0,0.1,0.9,2.0,6.0,0.21177093749999998,0.33675,0.08679187499999998,-1.7,1.6,-0.04999999999999993,1.0,6.0,802.0
101.0,3.0,29.0,802.0,4.0,5.0,1.0,2.0,97.0,1024.0,0.0,4.0,802.0,3.0,0.0,0.0,1.0,2.0,0.1,0.9,2.0,6.0,0.21177093749999998,0.33675,0.08679187499999998,-1.7,1.6,-0.04999999999999993,1.0,6.0,802.0
101.0,3.0,30.0,802.0,5.0,4.0,1.0,2.0,98.0,994.0,1.0,2.0,802.0,3.0,0.0,0.0,1.0,2.0,0.1,0.9,2.0,6.0,0.21177093749999998,0.33675,0.08679187499999998,-1.7,1.6,-0.04999999999999993,1.0,6.0,802.0
101.0,3.0,31.0,1553.0,1.0,4.0,1.0,2.0,97.0,990.0,0.0,3.0,1553.0,4.0,0.0,0.0,1.0,3.0,0.2,0.6,2.0,5.0,0.3713000000000001,0.3994000000000001,0.34320000000000006,-1.4000000000000001,0.9999999999999998,-0.20000000000000018,2.0,7.0,1553.0
101.0,3.0,32.0,1553.0,2.0,3.0,1.0,1.0,97.0,1270.0,1.0,4.0,1553.0,4.0,0.0,0.0,1.0,3.0,0.2,0.6,2.0,5.0,0.3713000000000001,0.3994000000000001,0.34320000000000006,-1.4000000000000001,0.9999999999999998,-0.20000000000000018,2.0,7.0,1553.0
101.0,3.0,33.0,1553.0,3.0,4.0,2.0,1.0,97.0,1189.0,1.0,5.0,1553.0,4.0,0.0,0.0,1.0,3.0,0.2,0.6,2.0,5.0,0.3713000000000001,0.3994000000000001,0.34320000000000006,-1.4000000000000001,0.9999999999999998,-0.20000000000000018,2.0,7.0,1553.0
101.0,3.0,34.0,1553.0,4.0,5.0,1.0,2.0,97.0,797.0,0.0,4.0,1553.0,4.0,0.0,0.0,1.0,3.0,0.2,0.6,2.0,5.0,0.3713000000000001,0.3994000000000001,0.34320000000000006,-1.4000000000000001,0.9999999999999998,-0.20000000000000018,2.0,7.0,1553.0
101.0,3.0,35.0,1553.0,5.0,4.0,1.0,2.0,97.0,842.0,0.0,3.0,1553.0,4.0,0.0,0.0,1.0,3.0,0.2,0.6,2.0,5.0,0.3713000000000001,0.3994000000000001,0.34320000000000006,-1.4000000000000001,0.9999999999999998,-0.20000000000000018,2.0,7.0,1553.0
101.0,3.0,36.0,110.0,1.0,2.0,1.0,2.0,97.0,1022.0,0.0,1.0,110.0,2.0,0.0,0.0,0.0,4.0,0.1,0.8,2.0,6.0,0.422861875,0.58514375,0.2605799999999999,-1.8,2.8000000000000003,0.5000000000000001,2.0,8.0,110.0
101.0,3.0,37.0,110.0,2.0,1.0,2.0,2.0,98.0,799.0,1.0,5.0,110.0,2.0,0.0,0.0,0.0,4.0,0.1,0.8,2.0,6.0,0.422861875,0.58514375,0.2605799999999999,-1.8,2.8000000000000003,0.5000000000000001,2.0,8.0,110.0
101.0,3.0,38.0,110.0,3.0,5.0,1.0,1.0,98.0,1462.0,0.0,4.0,110.0,2.0,0.0,0.0,0.0,4.0,0.1,0.8,2.0,6.0,0.422861875,0.58514375,0.2605799999999999,-1.8,2.8000000000000003,0.5000000000000001,2.0,8.0,110.0
101.0,3.0,39.0,110.0,4.0,4.0,1.0,1.0,98.0,945.0,0.0,3.0,110.0,2.0,0.0,0.0,0.0,4.0,0.1,0.8,2.0,6.0,0.422861875,0.58514375,0.2605799999999999,-1.8,2.8000000000000003,0.5000000000000001,2.0,8.0,110.0
101.0,3.0,40.0,110.0,5.0,3.0,1.0,1.0,98.0,886.0,0.0,2.0,110.0,2.0,0.0,0.0,0.0,4.0,0.1,0.8,2.0,6.0,0.422861875,0.58514375,0.2605799999999999,-1.8,2.8000000000000003,0.5000000000000001,2.0,8.0,110.0
101.0,3.0,41.0,1021.0,1.0,3.0,1.0,1.0,98.0,782.0,0.0,2.0,1021.0,3.0,0.0,0.0,0.0,0.0,0.30000000000000004,0.9,2.0,6.0,0.5420125,0.66368125,0.42034375000000007,-1.4,-0.19999999999999996,-0.7999999999999999,1.0,9.0,1021.0
101.0,3.0,42.0,1021.0,2.0,2.0,2.0,1.0,97.0,1142.0,1.0,0.0,1021.0,3.0,0.0,0.0,0.0,0.0,0.30000000000000004,0.9,2.0,6.0,0.5420125,0.66368125,0.42034375000000007,-1.4,-0.19999999999999996,-0.7999999999999999,1.0,9.0,1021.0
101.0,3.0,43.0,1021.0,3.0,0.0,0.0,0.0,98.0,613.0,0.0,0.0,1021.0,3.0,0.0,0.0,0.0,0.0,0.30000000000000004,0.9,2.0,6.0,0.5420125,0.66368125,0.42034375000000007,-1.4,-0.19999999999999996,-0.7999999999999999,1.0,9.0,1021.0
101.0,3.0,44.0,1021.0,4.0,0.0,0.0,0.0,98.0,663.0,0.0,0.0,1021.0,3.0,0.0,0.0,0.0,0.0,0.30000000000000004,0.9,2.0,6.0,0.5420125,0.66368125,0.42034375000000007,-1.4,-0.19999999999999996,-0.7999999999999999,1.0,9.0,1021.0
101.0,3.0,45.0,1021.0,5.0,0.0,0.0,0.0,98.0,696.0,0.0,0.0,1021.0,3.0,0.0,0.0,0.0,0.0,0.30000000000000004,0.9,2.0,6.0,0.5420125,0.66368125,0.42034375000000007,-1.4,-0.19999999999999996,-0.7999999999999999,1.0,9.0,1021.0
101.0,3.0,46.0,1095.0,1.0,3.0,1.0,1.0,97.0,1276.0,1.0,5.0,1095.0,3.0,0.0,0.0,4.0,4.0,0.4,0.7,2.0,6.0,0.3030975,0.38641875,0.21977625000000003,0.40000000000000013,2.1999999999999997,1.2999999999999998,4.0,10.0,1095.0
101.0,3.0,47.0,1095.0,2.0,5.0,1.0,1.0,97.0,1149.0,1.0,5.0,1095.0,3.0,0.0,0.0,4.0,4.0,0.4,0.7,2.0,6.0,0.3030975,0.38641875,0.21977625000000003,0.40000000000000013,2.1999999999999997,1.2999999999999998,4.0,10.0,1095.0
101.0,3.0,48.0,1095.0,3.0,5.0,2.0,1.0,97.0,940.0,1.0,3.0,1095.0,3.0,0.0,0.0,4.0,4.0,0.4,0.7,2.0,6.0,0.3030975,0.38641875,0.21977625000000003,0.40000000000000013,2.1999999999999997,1.2999999999999998,4.0,10.0,1095.0
101.0,3.0,49.0,1095.0,4.0,3.0,2.0,1.0,97.0,968.0,1.0,1.0,1095.0,3.0,0.0,0.0,4.0,4.0,0.4,0.7,2.0,6.0,0.3030975,0.38641875,0.21977625000000003,0.40000000000000013,2.1999999999999997,1.2999999999999998,4.0,10.0,1095.0
101.0,3.0,50.0,1095.0,5.0,1.0,2.0,2.0,98.0,783.0,1.0,0.0,1095.0,3.0,0.0,0.0,4.0,4.0,0.4,0.7,2.0,6.0,0.3030975,0.38641875,0.21977625000000003,0.40000000000000013,2.1999999999999997,1.2999999999999998,4.0,10.0,1095.0
101.0,3.0,51.0,1756.0,1.0,4.0,2.0,2.0,98.0,1138.0,1.0,2.0,1756.0,4.0,0.0,0.0,0.0,0.0,0.4,0.7,2.0,6.0,0.5241525,0.5781187499999999,0.47018625000000003,-1.2,-0.6000000000000001,-0.9,1.0,11.0,1756.0
101.0,3.0,52.0,1756.0,2.0,2.0,2.0,2.0,98.0,1234.0,1.0,2.0,1756.0,4.0,0.0,0.0,0.0,0.0,0.4,0.7,2.0,6.0,0.5241525,0.5781187499999999,0.47018625000000003,-1.2,-0.6000000000000001,-0.9,1.0,11.0,1756.0
101.0,3.0,53.0,1756.0,3.0,2.0,1.0,2.0,97.0,892.0,0.0,1.0,1756.0,4.0,0.0,0.0,0.0,0.0,0.4,0.7,2.0,6.0,0.5241525,0.5781187499999999,0.47018625000000003,-1.2,-0.6000000000000001,-0.9,1.0,11.0,1756.0
101.0,3.0,54.0,1756.0,4.0,1.0,2.0,2.0,98.0,1127.0,1.0,1.0,1756.0,4.0,0.0,0.0,0.0,0.0,0.4,0.7,2.0,6.0,0.5241525,0.5781187499999999,0.47018625000000003,-1.2,-0.6000000000000001,-0.9,1.0,11.0,1756.0
101.0,3.0,55.0,1756.0,5.0,1.0,2.0,2.0,98.0,1358.0,1.0,1.0,1756.0,4.0,0.0,0.0,0.0,0.0,0.4,0.7,2.0,6.0,0.5241525,0.5781187499999999,0.47018625000000003,-1.2,-0.6000000000000001,-0.9,1.0,11.0,1756.0
101.0,3.0,56.0,1207.0,1.0,3.0,1.0,2.0,98.0,1024.0,1.0,1.0,1207.0,3.0,0.0,0.0,1.0,2.0,0.6,0.6,4.0,4.0,0.34912000000000004,0.36352,0.33472,-0.20000000000000007,0.3999999999999999,0.09999999999999992,1.0,12.0,1207.0
101.0,3.0,57.0,1207.0,2.0,1.0,1.0,2.0,98.0,1296.0,1.0,2.0,1207.0,3.0,0.0,0.0,1.0,2.0,0.6,0.6,4.0,4.0,0.34912000000000004,0.36352,0.33472,-0.20000000000000007,0.3999999999999999,0.09999999999999992,1.0,12.0,1207.0
101.0,3.0,58.0,1207.0,3.0,2.0,2.0,1.0,98.0,1915.0,0.0,1.0,1207.0,3.0,0.0,0.0,1.0,2.0,0.6,0.6,4.0,4.0,0.34912000000000004,0.36352,0.33472,-0.20000000000000007,0.3999999999999999,0.09999999999999992,1.0,12.0,1207.0
101.0,3.0,59.0,1207.0,4.0,1.0,2.0,1.0,97.0,839.0,1.0,3.0,1207.0,3.0,0.0,0.0,1.0,2.0,0.6,0.6,4.0,4.0,0.34912000000000004,0.36352,0.33472,-0.20000000000000007,0.3999999999999999,0.09999999999999992,1.0,12.0,1207.0
101.0,3.0,60.0,1207.0,5.0,3.0,1.0,2.0,98.0,1271.0,1.0,1.0,1207.0,3.0,0.0,0.0,1.0,2.0,0.6,0.6,4.0,4.0,0.34912000000000004,0.36352,0.33472,-0.20000000000000007,0.3999999999999999,0.09999999999999992,1.0,12.0,1207.0
101.0,3.0,61.0,1535.0,1.0,4.0,1.0,1.0,98.0,1275.0,0.0,3.0,1535.0,4.0,0.0,0.0,0.0,4.0,0.2,0.5,2.0,4.0,0.484125,0.484125,0.484125,-1.6,1.0,-0.30000000000000004,2.0,13.0,1535.0
101.0,3.0,62.0,1535.0,2.0,3.0,1.0,1.0,98.0,1005.0,0.0,2.0,1535.0,4.0,0.0,0.0,0.0,4.0,0.2,0.5,2.0,4.0,0.484125,0.484125,0.484125,-1.6,1.0,-0.30000000000000004,2.0,13.0,1535.0
101.0,3.0,63.0,1535.0,3.0,2.0,2.0,2.0,98.0,650.0,1.0,5.0,1535.0,4.0,0.0,0.0,0.0,4.0,0.2,0.5,2.0,4.0,0.484125,0.484125,0.484125,-1.6,1.0,-0.30000000000000004,2.0,13.0,1535.0
101.0,3.0,64.0,1535.0,4.0,5.0,2.0,1.0,97.0,838.0,1.0,5.0,1535.0,4.0,0.0,0.0,0.0,4.0,0.2,0.5,2.0,4.0,0.484125,0.484125,0.484125,-1.6,1.0,-0.30000000000000004,2.0,13.0,1535.0
101.0,3.0,65.0,1535.0,5.0,5.0,2.0,2.0,98.0,737.0,1.0,3.0,1535.0,4.0,0.0,0.0,0.0,4.0,0.2,0.5,2.0,4.0,0.484125,0.484125,0.484125,-1.6,1.0,-0.30000000000000004,2.0,13.0,1535.0
101.0,3.0,66.0,126.0,1.0,2.0,2.0,2.0,98.0,637.0,1.0,3.0,126.0,2.0,0.0,0.0,1.0,1.0,0.1,0.9,2.0,6.0,0.48185,0.6675,0.29619999999999996,-1.7,0.7000000000000001,-0.49999999999999994,1.0,14.0,126.0
101.0,3.0,67.0,126.0,2.0,3.0,2.0,2.0,98.0,1058.0,1.0,4.0,126.0,2.0,0.0,0.0,1.0,1.0,0.1,0.9,2.0,6.0,0.48185,0.6675,0.29619999999999996,-1.7,0.7000000000000001,-0.49999999999999994,1.0,14.0,126.0
101.0,3.0,68.0,126.0,3.0,4.0,2.0,2.0,98.0,647.0,1.0,5.0,126.0,2.0,0.0,0.0,1.0,1.0,0.1,0.9,2.0,6.0,0.48185,0.6675,0.29619999999999996,-1.7,0.7000000000000001,-0.49999999999999994,1.0,14.0,126.0
101.0,3.0,69.0,126.0,4.0,5.0,1.0,2.0,98.0,1598.0,1.0,3.0,126.0,2.0,0.0,0.0,1.0,1.0,0.1,0.9,2.0,6.0,0.48185,0.6675,0.29619999999999996,-1.7,0.7000000000000001,-0.49999999999999994,1.0,14.0,126.0
101.0,3.0,70.0,126.0,5.0,3.0,2.0,1.0,97.0,1200.0,1.0,4.0,126.0,2.0,0.0,0.0,1.0,1.0,0.1,0.9,2.0,6.0,0.48185,0.6675,0.29619999999999996,-1.7,0.7000000000000001,-0.49999999999999994,1.0,14.0,126.0
101.0,3.0,71.0,1841.0,1.0,4.0,1.0,1.0,97.0,1226.0,1.0,5.0,1841.0,4.0,0.0,0.0,2.0,3.0,0.5,0.7,2.0,6.0,0.22060625000000006,0.25226875,0.18894375000000002,0.0,1.4999999999999996,0.7499999999999998,3.0,15.0,1841.0
101.0,3.0,72.0,1841.0,2.0,5.0,1.0,2.0,98.0,1017.0,1.0,5.0,1841.0,4.0,0.0,0.0,2.0,3.0,0.5,0.7,2.0,6.0,0.22060625000000006,0.25226875,0.18894375000000002,0.0,1.4999999999999996,0.7499999999999998,3.0,15.0,1841.0
101.0,3.0,73.0,1841.0,3.0,5.0,2.0,1.0,97.0,827.0,1.0,5.0,1841.0,4.0,0.0,0.0,2.0,3.0,0.5,0.7,2.0,6.0,0.22060625000000006,0.25226875,0.18894375000000002,0.0,1.4999999999999996,0.7499999999999998,3.0,15.0,1841.0
101.0,3.0,74.0,1841.0,4.0,5.0,2.0,2.0,98.0,702.0,1.0,3.0,1841.0,4.0,0.0,0.0,2.0,3.0,0.5,0.7,2.0,6.0,0.22060625000000006,0.25226875,0.18894375000000002,0.0,1.4999999999999996,0.7499999999999998,3.0,15.0,1841.0
101.0,3.0,75.0,1841.0,5.0,3.0,1.0,2.0,98.0,1237.0,1.0,1.0,1841.0,4.0,0.0,0.0,2.0,3.0,0.5,0.7,2.0,6.0,0.22060625000000006,0.25226875,0.18894375000000002,0.0,1.4999999999999996,0.7499999999999998,3.0,15.0,1841.0
101.0,3.0,76.0,908.0,1.0,3.0,1.0,2.0,97.0,1239.0,0.0,2.0,908.0,3.0,0.0,0.0,1.0,3.0,0.2,0.8,2.0,6.0,0.27313999999999994,0.3755,0.17077999999999996,-1.4000000000000001,2.0000000000000004,0.30000000000000016,1.0,16.0,908.0
101.0,3.0,77.0,908.0,2.0,2.0,2.0,2.0,98.0,1062.0,1.0,5.0,908.0,3.0,0.0,0.0,1.0,3.0,0.2,0.8,2.0,6.0,0.27313999999999994,0.3755,0.17077999999999996,-1.4000000000000001,2.0000000000000004,0.30000000000000016,1.0,16.0,908.0
101.0,3.0,78.0,908.0,3.0,5.0,2.0,1.0,97.0,1046.0,1.0,3.0,908.0,3.0,0.0,0.0,1.0,3.0,0.2,0.8,2.0,6.0,0.27313999999999994,0.3755,0.17077999999999996,-1.4000000000000001,2.0000000000000004,0.30000000000000016,1.0,16.0,908.0
101.0,3.0,79.0,908.0,4.0,3.0,2.0,2.0,98.0,858.0,1.0,5.0,908.0,3.0,0.0,0.0,1.0,3.0,0.2,0.8,2.0,6.0,0.27313999999999994,0.3755,0.17077999999999996,-1.4000000000000001,2.0000000000000004,0.30000000000000016,1.0,16.0,908.0
101.0,3.0,80.0,908.0,5.0,5.0,1.0,2.0,97.0,1355.0,0.0,4.0,908.0,3.0,0.0,0.0,1.0,3.0,0.2,0.8,2.0,6.0,0.27313999999999994,0.3755,0.17077999999999996,-1.4000000000000001,2.0000000000000004,0.30000000000000016,1.0,16.0,908.0
101.0,3.0,81.0,637.0,1.0,2.0,2.0,2.0,98.0,743.0,1.0,4.0,637.0,2.0,0.0,0.0,1.0,2.0,0.8,0.8,4.0,4.0,0.2524799999999999,0.26015999999999995,0.24479999999999993,0.40000000000000013,1.2000000000000002,0.8000000000000002,1.0,17.0,637.0
101.0,3.0,82.0,637.0,2.0,4.0,1.0,2.0,97.0,1167.0,0.0,3.0,637.0,2.0,0.0,0.0,1.0,2.0,0.8,0.8,4.0,4.0,0.2524799999999999,0.26015999999999995,0.24479999999999993,0.40000000000000013,1.2000000000000002,0.8000000000000002,1.0,17.0,637.0
101.0,3.0,83.0,637.0,3.0,3.0,2.0,1.0,97.0,1065.0,1.0,5.0,637.0,2.0,0.0,0.0,1.0,2.0,0.8,0.8,4.0,4.0,0.2524799999999999,0.26015999999999995,0.24479999999999993,0.40000000000000013,1.2000000000000002,0.8000000000000002,1.0,17.0,637.0
101.0,3.0,84.0,637.0,4.0,5.0,2.0,1.0,97.0,1120.0,1.0,5.0,637.0,2.0,0.0,0.0,1.0,2.0,0.8,0.8,4.0,4.0,0.2524799999999999,0.26015999999999995,0.24479999999999993,0.40000000000000013,1.2000000000000002,0.8000000000000002,1.0,17.0,637.0
101.0,3.0,85.0,637.0,5.0,5.0,1.0,1.0,97.0,858.0,1.0,3.0,637.0,2.0,0.0,0.0,1.0,2.0,0.8,0.8,4.0,4.0,0.2524799999999999,0.26015999999999995,0.24479999999999993,0.40000000000000013,1.2000000000000002,0.8000000000000002,1.0,17.0,637.0
101.0,3.0,86.0,552.0,1.0,2.0,2.0,2.0,98.0,707.0,1.0,0.0,552.0,2.0,0.0,0.0,2.0,4.0,0.6,0.7,4.0,4.0,0.42962500000000003,0.47350000000000003,0.38575000000000004,0.3999999999999999,2.1999999999999997,1.2999999999999998,3.0,18.0,552.0
101.0,3.0,87.0,552.0,2.0,0.0,0.0,0.0,98.0,633.0,0.0,0.0,552.0,2.0,0.0,0.0,2.0,4.0,0.6,0.7,4.0,4.0,0.42962500000000003,0.47350000000000003,0.38575000000000004,0.3999999999999999,2.1999999999999997,1.2999999999999998,3.0,18.0,552.0
101.0,3.0,88.0,552.0,3.0,0.0,0.0,0.0,98.0,523.0,0.0,0.0,552.0,2.0,0.0,0.0,2.0,4.0,0.6,0.7,4.0,4.0,0.42962500000000003,0.47350000000000003,0.38575000000000004,0.3999999999999999,2.1999999999999997,1.2999999999999998,3.0,18.0,552.0
101.0,3.0,89.0,552.0,4.0,0.0,0.0,0.0,98.0,642.0,0.0,0.0,552.0,2.0,0.0,0.0,2.0,4.0,0.6,0.7,4.0,4.0,0.42962500000000003,0.47350000000000003,0.38575000000000004,0.3999999999999999,2.1999999999999997,1.2999999999999998,3.0,18.0,552.0
101.0,3.0,90.0,552.0,5.0,0.0,0.0,0.0,98.0,1013.0,0.0,0.0,552.0,2.0,0.0,0.0,2.0,4.0,0.6,0.7,4.0,4.0,0.42962500000000003,0.47350000000000003,0.38575000000000004,0.3999999999999999,2.1999999999999997,1.2999999999999998,3.0,18.0,552.0
101.0,3.0,91.0,123.0,1.0,2.0,2.0,1.0,97.0,1143.0,1.0,4.0,123.0,2.0,0.0,0.0,0.0,2.0,0.1,0.9,2.0,6.0,0.4008471875,0.60675,0.19494437499999998,-1.8,1.6,-0.09999999999999998,1.0,19.0,123.0
101.0,3.0,92.0,123.0,2.0,4.0,2.0,2.0,98.0,1104.0,1.0,5.0,123.0,2.0,0.0,0.0,0.0,2.0,0.1,0.9,2.0,6.0,0.4008471875,0.60675,0.19494437499999998,-1.8,1.6,-0.09999999999999998,1.0,19.0,123.0
101.0,3.0,93.0,123.0,3.0,5.0,1.0,2.0,97.0,794.0,0.0,4.0,123.0,2.0,0.0,0.0,0.0,2.0,0.1,0.9,2.0,6.0,0.4008471875,0.60675,0.19494437499999998,-1.8,1.6,-0.09999999999999998,1.0,19.0,123.0
101.0,3.0,94.0,123.0,4.0,4.0,2.0,1.0,97.0,742.0,1.0,5.0,123.0,2.0,0.0,0.0,0.0,2.0,0.1,0.9,2.0,6.0,0.4008471875,0.60675,0.19494437499999998,-1.8,1.6,-0.09999999999999998,1.0,19.0,123.0
101.0,3.0,95.0,123.0,5.0,5.0,2.0,2.0,98.0,558.0,1.0,5.0,123.0,2.0,0.0,0.0,0.0,2.0,0.1,0.9,2.0,6.0,0.4008471875,0.60675,0.19494437499999998,-1.8,1.6,-0.09999999999999998,1.0,19.0,123.0
101.0,3.0,96.0,903.0,1.0,3.0,2.0,1.0,97.0,809.0,1.0,1.0,903.0,3.0,0.0,0.0,0.0,2.0,0.2,0.8,2.0,6.0,0.3095,0.4315,0.18749999999999994,-1.6,1.2000000000000002,-0.19999999999999996,1.0,20.0,903.0
101.0,3.0,97.0,903.0,2.0,1.0,1.0,2.0,98.0,1300.0,1.0,1.0,903.0,3.0,0.0,0.0,0.0,2.0,0.2,0.8,2.0,6.0,0.3095,0.4315,0.18749999999999994,-1.6,1.2000000000000002,-0.19999999999999996,1.0,20.0,903.0
101.0,3.0,98.0,903.0,3.0,1.0,2.0,2.0,98.0,950.0,1.0,3.0,903.0,3.0,0.0,0.0,0.0,2.0,0.2,0.8,2.0,6.0,0.3095,0.4315,0.18749999999999994,-1.6,1.2000000000000002,-0.19999999999999996,1.0,20.0,903.0
101.0,3.0,99.0,903.0,4.0,3.0,2.0,2.0,98.0,1282.0,1.0,5.0,903.0,3.0,0.0,0.0,0.0,2.0,0.2,0.8,2.0,6.0,0.3095,0.4315,0.18749999999999994,-1.6,1.2000000000000002,-0.19999999999999996,1.0,20.0,903.0
101.0,3.0,100.0,903.0,5.0,5.0,2.0,2.0,98.0,1036.0,1.0,5.0,903.0,3.0,0.0,0.0,0.0,2.0,0.2,0.8,2.0,6.0,0.3095,0.4315,0.18749999999999994,-1.6,1.2000000000000002,-0.19999999999999996,1.0,20.0,903.0
101.0,3.0,101.0,1443.0,1.0,4.0,1.0,2.0,97.0,1416.0,0.0,3.0,1443.0,4.0,0.0,0.0,0.0,2.0,0.1,0.7,2.0,6.0,0.30571500000000007,0.35242500000000015,0.25900500000000004,-1.8,0.7999999999999998,-0.5000000000000001,1.0,21.0,1443.0
101.0,3.0,102.0,1443.0,2.0,3.0,2.0,2.0,98.0,621.0,1.0,1.0,1443.0,4.0,0.0,0.0,0.0,2.0,0.1,0.7,2.0,6.0,0.30571500000000007,0.35242500000000015,0.25900500000000004,-1.8,0.7999999999999998,-0.5000000000000001,1.0,21.0,1443.0
101.0,3.0,103.0,1443.0,3.0,1.0,2.0,1.0,97.0,1327.0,1.0,3.0,1443.0,4.0,0.0,0.0,0.0,2.0,0.1,0.7,2.0,6.0,0.30571500000000007,0.35242500000000015,0.25900500000000004,-1.8,0.7999999999999998,-0.5000000000000001,1.0,21.0,1443.0
101.0,3.0,104.0,1443.0,4.0,3.0,1.0,1.0,98.0,840.0,0.0,2.0,1443.0,4.0,0.0,0.0,0.0,2.0,0.1,0.7,2.0,6.0,0.30571500000000007,0.35242500000000015,0.25900500000000004,-1.8,0.7999999999999998,-0.5000000000000001,1.0,21.0,1443.0
101.0,3.0,105.0,1443.0,5.0,2.0,2.0,2.0,98.0,742.0,1.0,4.0,1443.0,4.0,0.0,0.0,0.0,2.0,0.1,0.7,2.0,6.0,0.30571500000000007,0.35242500000000015,0.25900500000000004,-1.8,0.7999999999999998,-0.5000000000000001,1.0,21.0,1443.0
101.0,3.0,106.0,578.0,1.0,2.0,2.0,1.0,97.0,829.0,1.0,0.0,578.0,2.0,0.0,0.0,1.0,3.0,0.6,0.9,2.0,6.0,0.21764968749999997,0.317125,0.11817437499999997,-0.20000000000000007,2.5,1.15,2.0,22.0,578.0
101.0,3.0,107.0,578.0,2.0,0.0,0.0,0.0,98.0,359.0,0.0,0.0,578.0,2.0,0.0,0.0,1.0,3.0,0.6,0.9,2.0,6.0,0.21764968749999997,0.317125,0.11817437499999997,-0.20000000000000007,2.5,1.15,2.0,22.0,578.0
101.0,3.0,108.0,578.0,3.0,0.0,0.0,0.0,98.0,439.0,0.0,0.0,578.0,2.0,0.0,0.0,1.0,3.0,0.6,0.9,2.0,6.0,0.21764968749999997,0.317125,0.11817437499999997,-0.20000000000000007,2.5,1.15,2.0,22.0,578.0
101.0,3.0,109.0,578.0,4.0,0.0,0.0,0.0,98.0,798.0,0.0,0.0,578.0,2.0,0.0,0.0,1.0,3.0,0.6,0.9,2.0,6.0,0.21764968749999997,0.317125,0.11817437499999997,-0.20000000000000007,2.5,1.15,2.0,22.0,578.0
101.0,3.0,110.0,578.0,5.0,0.0,0.0,0.0,98.0,962.0,0.0,0.0,578.0,2.0,0.0,0.0,1.0,3.0,0.6,0.9,2.0,6.0,0.21764968749999997,0.317125,0.11817437499999997,-0.20000000000000007,2.5,1.15,2.0,22.0,578.0
101.0,3.0,111.0,893.0,1.0,3.0,2.0,1.0,97.0,654.0,1.0,5.0,893.0,3.0,0.0,0.0,1.0,3.0,0.2,0.7,2.0,6.0,0.3724809375000001,0.46239375000000005,0.28256812500000006,-1.4000000000000001,1.4999999999999996,0.04999999999999971,5.0,23.0,893.0
101.0,3.0,112.0,893.0,2.0,5.0,1.0,2.0,97.0,1028.0,0.0,4.0,893.0,3.0,0.0,0.0,1.0,3.0,0.2,0.7,2.0,6.0,0.3724809375000001,0.46239375000000005,0.28256812500000006,-1.4000000000000001,1.4999999999999996,0.04999999999999971,5.0,23.0,893.0
101.0,3.0,113.0,893.0,3.0,4.0,1.0,1.0,98.0,945.0,0.0,3.0,893.0,3.0,0.0,0.0,1.0,3.0,0.2,0.7,2.0,6.0,0.3724809375000001,0.46239375000000005,0.28256812500000006,-1.4000000000000001,1.4999999999999996,0.04999999999999971,5.0,23.0,893.0
101.0,3.0,114.0,893.0,4.0,3.0,1.0,1.0,97.0,1287.0,1.0,1.0,893.0,3.0,0.0,0.0,1.0,3.0,0.2,0.7,2.0,6.0,0.3724809375000001,0.46239375000000005,0.28256812500000006,-1.4000000000000001,1.4999999999999996,0.04999999999999971,5.0,23.0,893.0
101.0,3.0,115.0,893.0,5.0,1.0,1.0,2.0,98.0,1512.0,1.0,0.0,893.0,3.0,0.0,0.0,1.0,3.0,0.2,0.7,2.0,6.0,0.3724809375000001,0.46239375000000005,0.28256812500000006,-1.4000000000000001,1.4999999999999996,0.04999999999999971,5.0,23.0,893.0
101.0,3.0,116.0,438.0,1.0,2.0,1.0,1.0,97.0,963.0,1.0,2.0,438.0,2.0,0.0,0.0,0.0,2.0,0.4,0.9,2.0,6.0,0.33694625,0.5006999999999999,0.17319249999999997,-1.2,1.6,0.20000000000000007,1.0,24.0,438.0
101.0,3.0,117.0,438.0,2.0,2.0,2.0,1.0,97.0,849.0,1.0,4.0,438.0,2.0,0.0,0.0,0.0,2.0,0.4,0.9,2.0,6.0,0.33694625,0.5006999999999999,0.17319249999999997,-1.2,1.6,0.20000000000000007,1.0,24.0,438.0
101.0,3.0,118.0,438.0,3.0,4.0,1.0,2.0,97.0,1054.0,0.0,3.0,438.0,2.0,0.0,0.0,0.0,2.0,0.4,0.9,2.0,6.0,0.33694625,0.5006999999999999,0.17319249999999997,-1.2,1.6,0.20000000000000007,1.0,24.0,438.0
101.0,3.0,119.0,438.0,4.0,3.0,2.0,2.0,98.0,665.0,1.0,5.0,438.0,2.0,0.0,0.0,0.0,2.0,0.4,0.9,2.0,6.0,0.33694625,0.5006999999999999,0.17319249999999997,-1.2,1.6,0.20000000000000007,1.0,24.0,438.0
101.0,3.0,120.0,438.0,5.0,5.0,2.0,2.0,98.0,962.0,1.0,5.0,438.0,2.0,0.0,0.0,0.0,2.0,0.4,0.9,2.0,6.0,0.33694625,0.5006999999999999,0.17319249999999997,-1.2,1.6,0.20000000000000007,1.0,24.0,438.0
101.0,4.0,1.0,1556.0,1.0,4.0,1.0,1.0,98.0,1373.0,0.0,3.0,1556.0,4.0,0.0,0.0,2.0,3.0,0.2,0.6,2.0,5.0,0.3632,0.3888000000000001,0.3376,-1.2000000000000002,0.9999999999999998,-0.1000000000000002,1.0,1.0,1556.0
101.0,4.0,2.0,1556.0,2.0,3.0,2.0,2.0,98.0,712.0,1.0,1.0,1556.0,4.0,0.0,0.0,2.0,3.0,0.2,0.6,2.0,5.0,0.3632,0.3888000000000001,0.3376,-1.2000000000000002,0.9999999999999998,-0.1000000000000002,1.0,1.0,1556.0
101.0,4.0,3.0,1556.0,3.0,1.0,2.0,2.0,98.0,1272.0,1.0,0.0,1556.0,4.0,0.0,0.0,2.0,3.0,0.2,0.6,2.0,5.0,0.3632,0.3888000000000001,0.3376,-1.2000000000000002,0.9999999999999998,-0.1000000000000002,1.0,1.0,1556.0
101.0,4.0,4.0,1556.0,4.0,0.0,0.0,0.0,98.0,472.0,0.0,0.0,1556.0,4.0,0.0,0.0,2.0,3.0,0.2,0.6,2.0,5.0,0.3632,0.3888000000000001,0.3376,-1.2000000000000002,0.9999999999999998,-0.1000000000000002,1.0,1.0,1556.0
101.0,4.0,5.0,1556.0,5.0,0.0,0.0,0.0,98.0,323.0,0.0,0.0,1556.0,4.0,0.0,0.0,2.0,3.0,0.2,0.6,2.0,5.0,0.3632,0.3888000000000001,0.3376,-1.2000000000000002,0.9999999999999998,-0.1000000000000002,1.0,1.0,1556.0
101.0,4.0,6.0,409.0,1.0,2.0,1.0,1.0,98.0,1042.0,0.0,1.0,409.0,2.0,0.0,0.0,0.0,3.0,0.4,0.7,2.0,6.0,0.49430531250000004,0.6078,0.38081062500000007,-1.2,1.4999999999999996,0.1499999999999998,1.0,2.0,409.0
101.0,4.0,7.0,409.0,2.0,1.0,1.0,2.0,98.0,797.0,1.0,0.0,409.0,2.0,0.0,0.0,0.0,3.0,0.4,0.7,2.0,6.0,0.49430531250000004,0.6078,0.38081062500000007,-1.2,1.4999999999999996,0.1499999999999998,1.0,2.0,409.0
101.0,4.0,8.0,409.0,3.0,0.0,0.0,0.0,98.0,550.0,0.0,0.0,409.0,2.0,0.0,0.0,0.0,3.0,0.4,0.7,2.0,6.0,0.49430531250000004,0.6078,0.38081062500000007,-1.2,1.4999999999999996,0.1499999999999998,1.0,2.0,409.0
101.0,4.0,9.0,409.0,4.0,0.0,0.0,0.0,98.0,727.0,0.0,0.0,409.0,2.0,0.0,0.0,0.0,3.0,0.4,0.7,2.0,6.0,0.49430531250000004,0.6078,0.38081062500000007,-1.2,1.4999999999999996,0.1499999999999998,1.0,2.0,409.0
101.0,4.0,10.0,409.0,5.0,0.0,0.0,0.0,98.0,631.0,0.0,0.0,409.0,2.0,0.0,0.0,0.0,3.0,0.4,0.7,2.0,6.0,0.49430531250000004,0.6078,0.38081062500000007,-1.2,1.4999999999999996,0.1499999999999998,1.0,2.0,409.0
101.0,4.0,11.0,1018.0,1.0,3.0,1.0,1.0,98.0,1552.0,0.0,2.0,1018.0,3.0,0.0,0.0,3.0,3.0,0.30000000000000004,0.8,2.0,6.0,0.24279499999999996,0.33354999999999996,0.15203999999999995,-0.4999999999999998,2.0000000000000004,0.7500000000000003,5.0,3.0,1018.0
101.0,4.0,12.0,1018.0,2.0,2.0,2.0,2.0,98.0,822.0,1.0,5.0,1018.0,3.0,0.0,0.0,3.0,3.0,0.30000000000000004,0.8,2.0,6.0,0.24279499999999996,0.33354999999999996,0.15203999999999995,-0.4999999999999998,2.0000000000000004,0.7500000000000003,5.0,3.0,1018.0
101.0,4.0,13.0,1018.0,3.0,5.0,1.0,2.0,97.0,1271.0,0.0,4.0,1018.0,3.0,0.0,0.0,3.0,3.0,0.30000000000000004,0.8,2.0,6.0,0.24279499999999996,0.33354999999999996,0.15203999999999995,-0.4999999999999998,2.0000000000000004,0.7500000000000003,5.0,3.0,1018.0
101.0,4.0,14.0,1018.0,4.0,4.0,2.0,1.0,97.0,825.0,1.0,5.0,1018.0,3.0,0.0,0.0,3.0,3.0,0.30000000000000004,0.8,2.0,6.0,0.24279499999999996,0.33354999999999996,0.15203999999999995,-0.4999999999999998,2.0000000000000004,0.7500000000000003,5.0,3.0,1018.0
101.0,4.0,15.0,1018.0,5.0,5.0,1.0,2.0,97.0,1036.0,0.0,4.0,1018.0,3.0,0.0,0.0,3.0,3.0,0.30000000000000004,0.8,2.0,6.0,0.24279499999999996,0.33354999999999996,0.15203999999999995,-0.4999999999999998,2.0000000000000004,0.7500000000000003,5.0,3.0,1018.0
101.0,4.0,16.0,995.0,1.0,3.0,2.0,2.0,98.0,409.0,1.0,5.0,995.0,3.0,0.0,0.0,0.0,4.0,0.30000000000000004,0.7,2.0,6.0,0.36021875,0.45493750000000005,0.2655,-1.4,2.1999999999999997,0.3999999999999999,1.0,4.0,995.0
101.0,4.0,17.0,995.0,2.0,5.0,2.0,2.0,98.0,979.0,1.0,5.0,995.0,3.0,0.0,0.0,0.0,4.0,0.30000000000000004,0.7,2.0,6.0,0.36021875,0.45493750000000005,0.2655,-1.4,2.1999999999999997,0.3999999999999999,1.0,4.0,995.0
101.0,4.0,18.0,995.0,3.0,5.0,2.0,2.0,98.0,763.0,1.0,5.0,995.0,3.0,0.0,0.0,0.0,4.0,0.30000000000000004,0.7,2.0,6.0,0.36021875,0.45493750000000005,0.2655,-1.4,2.1999999999999997,0.3999999999999999,1.0,4.0,995.0
101.0,4.0,19.0,995.0,4.0,5.0,2.0,1.0,97.0,1082.0,1.0,5.0,995.0,3.0,0.0,0.0,0.0,4.0,0.30000000000000004,0.7,2.0,6.0,0.36021875,0.45493750000000005,0.2655,-1.4,2.1999999999999997,0.3999999999999999,1.0,4.0,995.0
101.0,4.0,20.0,995.0,5.0,5.0,1.0,1.0,98.0,934.0,0.0,4.0,995.0,3.0,0.0,0.0,0.0,4.0,0.30000000000000004,0.7,2.0,6.0,0.36021875,0.45493750000000005,0.2655,-1.4,2.1999999999999997,0.3999999999999999,1.0,4.0,995.0
101.0,4.0,21.0,1538.0,1.0,4.0,1.0,1.0,98.0,1037.0,0.0,3.0,1538.0,4.0,0.0,0.0,1.0,3.0,0.2,0.5,2.0,4.0,0.47062499999999996,0.47062499999999996,0.47062499999999996,-1.4000000000000001,0.5,-0.45000000000000007,2.0,5.0,1538.0
101.0,4.0,22.0,1538.0,2.0,3.0,2.0,1.0,97.0,800.0,1.0,1.0,1538.0,4.0,0.0,0.0,1.0,3.0,0.2,0.5,2.0,4.0,0.47062499999999996,0.47062499999999996,0.47062499999999996,-1.4000000000000001,0.5,-0.45000000000000007,2.0,5.0,1538.0
101.0,4.0,23.0,1538.0,3.0,1.0,1.0,2.0,98.0,1167.0,1.0,2.0,1538.0,4.0,0.0,0.0,1.0,3.0,0.2,0.5,2.0,4.0,0.47062499999999996,0.47062499999999996,0.47062499999999996,-1.4000000000000001,0.5,-0.45000000000000007,2.0,5.0,1538.0
101.0,4.0,24.0,1538.0,4.0,2.0,2.0,2.0,97.0,1440.0,0.0,1.0,1538.0,4.0,0.0,0.0,1.0,3.0,0.2,0.5,2.0,4.0,0.47062499999999996,0.47062499999999996,0.47062499999999996,-1.4000000000000001,0.5,-0.45000000000000007,2.0,5.0,1538.0
101.0,4.0,25.0,1538.0,5.0,1.0,1.0,2.0,98.0,1096.0,1.0,2.0,1538.0,4.0,0.0,0.0,1.0,3.0,0.2,0.5,2.0,4.0,0.47062499999999996,0.47062499999999996,0.47062499999999996,-1.4000000000000001,0.5,-0.45000000000000007,2.0,5.0,1538.0
101.0,4.0,26.0,1543.0,1.0,4.0,1.0,1.0,98.0,1220.0,0.0,3.0,1543.0,4.0,0.0,0.0,3.0,3.0,0.2,0.5,2.0,4.0,0.44999999999999996,0.44999999999999996,0.44999999999999996,-1.0,0.5,-0.25,1.0,6.0,1543.0
101.0,4.0,27.0,1543.0,2.0,3.0,2.0,1.0,97.0,772.0,1.0,1.0,1543.0,4.0,0.0,0.0,3.0,3.0,0.2,0.5,2.0,4.0,0.44999999999999996,0.44999999999999996,0.44999999999999996,-1.0,0.5,-0.25,1.0,6.0,1543.0
101.0,4.0,28.0,1543.0,3.0,1.0,1.0,2.0,98.0,1372.0,1.0,0.0,1543.0,4.0,0.0,0.0,3.0,3.0,0.2,0.5,2.0,4.0,0.44999999999999996,0.44999999999999996,0.44999999999999996,-1.0,0.5,-0.25,1.0,6.0,1543.0
101.0,4.0,29.0,1543.0,4.0,0.0,0.0,0.0,98.0,314.0,0.0,0.0,1543.0,4.0,0.0,0.0,3.0,3.0,0.2,0.5,2.0,4.0,0.44999999999999996,0.44999999999999996,0.44999999999999996,-1.0,0.5,-0.25,1.0,6.0,1543.0
101.0,4.0,30.0,1543.0,5.0,0.0,0.0,0.0,98.0,624.0,0.0,0.0,1543.0,4.0,0.0,0.0,3.0,3.0,0.2,0.5,2.0,4.0,0.44999999999999996,0.44999999999999996,0.44999999999999996,-1.0,0.5,-0.25,1.0,6.0,1543.0
101.0,4.0,31.0,1545.0,1.0,4.0,2.0,1.0,97.0,718.0,1.0,5.0,1545.0,4.0,0.0,0.0,4.0,4.0,0.2,0.5,2.0,4.0,0.44999999999999996,0.44999999999999996,0.44999999999999996,-0.8,1.0,0.09999999999999998,3.0,7.0,1545.0
101.0,4.0,32.0,1545.0,2.0,5.0,2.0,1.0,97.0,753.0,1.0,5.0,1545.0,4.0,0.0,0.0,4.0,4.0,0.2,0.5,2.0,4.0,0.44999999999999996,0.44999999999999996,0.44999999999999996,-0.8,1.0,0.09999999999999998,3.0,7.0,1545.0
101.0,4.0,33.0,1545.0,3.0,5.0,1.0,1.0,98.0,743.0,0.0,4.0,1545.0,4.0,0.0,0.0,4.0,4.0,0.2,0.5,2.0,4.0,0.44999999999999996,0.44999999999999996,0.44999999999999996,-0.8,1.0,0.09999999999999998,3.0,7.0,1545.0
101.0,4.0,34.0,1545.0,4.0,4.0,1.0,1.0,98.0,1106.0,0.0,3.0,1545.0,4.0,0.0,0.0,4.0,4.0,0.2,0.5,2.0,4.0,0.44999999999999996,0.44999999999999996,0.44999999999999996,-0.8,1.0,0.09999999999999998,3.0,7.0,1545.0
101.0,4.0,35.0,1545.0,5.0,3.0,2.0,2.0,98.0,599.0,1.0,1.0,1545.0,4.0,0.0,0.0,4.0,4.0,0.2,0.5,2.0,4.0,0.44999999999999996,0.44999999999999996,0.44999999999999996,-0.8,1.0,0.09999999999999998,3.0,7.0,1545.0
101.0,4.0,36.0,507.0,1.0,2.0,2.0,1.0,97.0,778.0,1.0,0.0,507.0,2.0,0.0,0.0,2.0,4.0,0.5,0.8,2.0,6.0,0.32232249999999996,0.39852499999999996,0.24611999999999995,0.0,2.8000000000000003,1.4000000000000001,1.0,8.0,507.0
101.0,4.0,37.0,507.0,2.0,0.0,0.0,0.0,98.0,1219.0,0.0,0.0,507.0,2.0,0.0,0.0,2.0,4.0,0.5,0.8,2.0,6.0,0.32232249999999996,0.39852499999999996,0.24611999999999995,0.0,2.8000000000000003,1.4000000000000001,1.0,8.0,507.0
101.0,4.0,38.0,507.0,3.0,0.0,0.0,0.0,98.0,721.0,0.0,0.0,507.0,2.0,0.0,0.0,2.0,4.0,0.5,0.8,2.0,6.0,0.32232249999999996,0.39852499999999996,0.24611999999999995,0.0,2.8000000000000003,1.4000000000000001,1.0,8.0,507.0
101.0,4.0,39.0,507.0,4.0,0.0,0.0,0.0,98.0,505.0,0.0,0.0,507.0,2.0,0.0,0.0,2.0,4.0,0.5,0.8,2.0,6.0,0.32232249999999996,0.39852499999999996,0.24611999999999995,0.0,2.8000000000000003,1.4000000000000001,1.0,8.0,507.0
101.0,4.0,40.0,507.0,5.0,0.0,0.0,0.0,98.0,618.0,0.0,0.0,507.0,2.0,0.0,0.0,2.0,4.0,0.5,0.8,2.0,6.0,0.32232249999999996,0.39852499999999996,0.24611999999999995,0.0,2.8000000000000003,1.4000000000000001,1.0,8.0,507.0
101.0,4.0,41.0,619.0,1.0,2.0,1.0,2.0,98.0,1512.0,1.0,2.0,619.0,2.0,0.0,0.0,0.0,3.0,0.7,0.9,2.0,6.0,0.21558312499999996,0.3147187500000001,0.11644749999999998,-0.6000000000000001,2.5,0.95,1.0,9.0,619.0
101.0,4.0,42.0,619.0,2.0,2.0,2.0,2.0,98.0,666.0,1.0,5.0,619.0,2.0,0.0,0.0,0.0,3.0,0.7,0.9,2.0,6.0,0.21558312499999996,0.3147187500000001,0.11644749999999998,-0.6000000000000001,2.5,0.95,1.0,9.0,619.0
101.0,4.0,43.0,619.0,3.0,5.0,1.0,1.0,98.0,938.0,0.0,4.0,619.0,2.0,0.0,0.0,0.0,3.0,0.7,0.9,2.0,6.0,0.21558312499999996,0.3147187500000001,0.11644749999999998,-0.6000000000000001,2.5,0.95,1.0,9.0,619.0
101.0,4.0,44.0,619.0,4.0,4.0,2.0,1.0,97.0,672.0,1.0,5.0,619.0,2.0,0.0,0.0,0.0,3.0,0.7,0.9,2.0,6.0,0.21558312499999996,0.3147187500000001,0.11644749999999998,-0.6000000000000001,2.5,0.95,1.0,9.0,619.0
101.0,4.0,45.0,619.0,5.0,5.0,1.0,1.0,98.0,988.0,0.0,4.0,619.0,2.0,0.0,0.0,0.0,3.0,0.7,0.9,2.0,6.0,0.21558312499999996,0.3147187500000001,0.11644749999999998,-0.6000000000000001,2.5,0.95,1.0,9.0,619.0
101.0,4.0,46.0,501.0,1.0,2.0,1.0,1.0,98.0,1506.0,0.0,1.0,501.0,2.0,0.0,0.0,1.0,1.0,0.5,0.8,2.0,6.0,0.48663749999999995,0.571975,0.4012999999999999,-0.5,0.40000000000000013,-0.04999999999999993,1.0,10.0,501.0
101.0,4.0,47.0,501.0,2.0,1.0,2.0,2.0,98.0,786.0,1.0,2.0,501.0,2.0,0.0,0.0,1.0,1.0,0.5,0.8,2.0,6.0,0.48663749999999995,0.571975,0.4012999999999999,-0.5,0.40000000000000013,-0.04999999999999993,1.0,10.0,501.0
101.0,4.0,48.0,501.0,3.0,2.0,2.0,2.0,,2012.0,0.0,1.0,501.0,2.0,0.0,0.0,1.0,1.0,0.5,0.8,2.0,6.0,0.48663749999999995,0.571975,0.4012999999999999,-0.5,0.40000000000000013,-0.04999999999999993,1.0,10.0,501.0
101.0,4.0,49.0,501.0,4.0,1.0,1.0,2.0,98.0,1109.0,1.0,2.0,501.0,2.0,0.0,0.0,1.0,1.0,0.5,0.8,2.0,6.0,0.48663749999999995,0.571975,0.4012999999999999,-0.5,0.40000000000000013,-0.04999999999999993,1.0,10.0,501.0
101.0,4.0,50.0,501.0,5.0,2.0,1.0,2.0,98.0,981.0,1.0,0.0,501.0,2.0,0.0,0.0,1.0,1.0,0.5,0.8,2.0,6.0,0.48663749999999995,0.571975,0.4012999999999999,-0.5,0.40000000000000013,-0.04999999999999993,1.0,10.0,501.0
101.0,4.0,51.0,774.0,1.0,3.0,1.0,1.0,98.0,1448.0,0.0,2.0,774.0,3.0,0.0,0.0,1.0,4.0,0.1,0.7,2.0,6.0,0.3794746875000001,0.47385000000000005,0.2850993750000001,-1.7,2.1999999999999997,0.2499999999999999,3.0,11.0,774.0
101.0,4.0,52.0,774.0,2.0,2.0,2.0,2.0,98.0,926.0,1.0,0.0,774.0,3.0,0.0,0.0,1.0,4.0,0.1,0.7,2.0,6.0,0.3794746875000001,0.47385000000000005,0.2850993750000001,-1.7,2.1999999999999997,0.2499999999999999,3.0,11.0,774.0
101.0,4.0,53.0,774.0,3.0,0.0,0.0,0.0,98.0,373.0,0.0,0.0,774.0,3.0,0.0,0.0,1.0,4.0,0.1,0.7,2.0,6.0,0.3794746875000001,0.47385000000000005,0.2850993750000001,-1.7,2.1999999999999997,0.2499999999999999,3.0,11.0,774.0
101.0,4.0,54.0,774.0,4.0,0.0,0.0,0.0,98.0,493.0,0.0,0.0,774.0,3.0,0.0,0.0,1.0,4.0,0.1,0.7,2.0,6.0,0.3794746875000001,0.47385000000000005,0.2850993750000001,-1.7,2.1999999999999997,0.2499999999999999,3.0,11.0,774.0
101.0,4.0,55.0,774.0,5.0,0.0,0.0,0.0,98.0,389.0,0.0,0.0,774.0,3.0,0.0,0.0,1.0,4.0,0.1,0.7,2.0,6.0,0.3794746875000001,0.47385000000000005,0.2850993750000001,-1.7,2.1999999999999997,0.2499999999999999,3.0,11.0,774.0
101.0,4.0,56.0,498.0,1.0,2.0,2.0,2.0,98.0,1307.0,1.0,4.0,498.0,2.0,0.0,0.0,0.0,2.0,0.5,0.8,2.0,6.0,0.42424187499999994,0.54584375,0.3026399999999999,-1.0,1.2000000000000002,0.10000000000000009,2.0,12.0,498.0
101.0,4.0,57.0,498.0,2.0,4.0,1.0,1.0,98.0,920.0,0.0,3.0,498.0,2.0,0.0,0.0,0.0,2.0,0.5,0.8,2.0,6.0,0.42424187499999994,0.54584375,0.3026399999999999,-1.0,1.2000000000000002,0.10000000000000009,2.0,12.0,498.0
101.0,4.0,58.0,498.0,3.0,3.0,1.0,2.0,98.0,592.0,1.0,1.0,498.0,2.0,0.0,0.0,0.0,2.0,0.5,0.8,2.0,6.0,0.42424187499999994,0.54584375,0.3026399999999999,-1.0,1.2000000000000002,0.10000000000000009,2.0,12.0,498.0
101.0,4.0,59.0,498.0,4.0,1.0,1.0,1.0,98.0,1556.0,0.0,0.0,498.0,2.0,0.0,0.0,0.0,2.0,0.5,0.8,2.0,6.0,0.42424187499999994,0.54584375,0.3026399999999999,-1.0,1.2000000000000002,0.10000000000000009,2.0,12.0,498.0
101.0,4.0,60.0,498.0,5.0,0.0,0.0,0.0,98.0,632.0,0.0,0.0,498.0,2.0,0.0,0.0,0.0,2.0,0.5,0.8,2.0,6.0,0.42424187499999994,0.54584375,0.3026399999999999,-1.0,1.2000000000000002,0.10000000000000009,2.0,12.0,498.0
101.0,4.0,61.0,1547.0,1.0,4.0,1.0,1.0,98.0,670.0,0.0,3.0,1547.0,4.0,0.0,0.0,0.0,1.0,0.2,0.6,2.0,5.0,0.4797600000000001,0.5404000000000001,0.41912000000000005,-1.6,-0.20000000000000007,-0.9000000000000001,1.0,13.0,1547.0
101.0,4.0,62.0,1547.0,2.0,3.0,1.0,2.0,97.0,1813.0,0.0,2.0,1547.0,4.0,0.0,0.0,0.0,1.0,0.2,0.6,2.0,5.0,0.4797600000000001,0.5404000000000001,0.41912000000000005,-1.6,-0.20000000000000007,-0.9000000000000001,1.0,13.0,1547.0
101.0,4.0,63.0,1547.0,3.0,2.0,1.0,2.0,97.0,1070.0,0.0,1.0,1547.0,4.0,0.0,0.0,0.0,1.0,0.2,0.6,2.0,5.0,0.4797600000000001,0.5404000000000001,0.41912000000000005,-1.6,-0.20000000000000007,-0.9000000000000001,1.0,13.0,1547.0
101.0,4.0,64.0,1547.0,4.0,1.0,1.0,1.0,98.0,872.0,0.0,0.0,1547.0,4.0,0.0,0.0,0.0,1.0,0.2,0.6,2.0,5.0,0.4797600000000001,0.5404000000000001,0.41912000000000005,-1.6,-0.20000000000000007,-0.9000000000000001,1.0,13.0,1547.0
101.0,4.0,65.0,1547.0,5.0,0.0,0.0,0.0,98.0,543.0,0.0,0.0,1547.0,4.0,0.0,0.0,0.0,1.0,0.2,0.6,2.0,5.0,0.4797600000000001,0.5404000000000001,0.41912000000000005,-1.6,-0.20000000000000007,-0.9000000000000001,1.0,13.0,1547.0
101.0,4.0,66.0,243.0,1.0,2.0,1.0,1.0,97.0,1971.0,1.0,2.0,243.0,2.0,0.0,0.0,0.0,2.0,0.2,0.9,2.0,6.0,0.381509375,0.5751000000000001,0.18791874999999997,-1.6,1.6,0.0,2.0,14.0,243.0
101.0,4.0,67.0,243.0,2.0,2.0,2.0,1.0,97.0,1052.0,1.0,0.0,243.0,2.0,0.0,0.0,0.0,2.0,0.2,0.9,2.0,6.0,0.381509375,0.5751000000000001,0.18791874999999997,-1.6,1.6,0.0,2.0,14.0,243.0
101.0,4.0,68.0,243.0,3.0,0.0,0.0,0.0,98.0,756.0,0.0,0.0,243.0,2.0,0.0,0.0,0.0,2.0,0.2,0.9,2.0,6.0,0.381509375,0.5751000000000001,0.18791874999999997,-1.6,1.6,0.0,2.0,14.0,243.0
101.0,4.0,69.0,243.0,4.0,0.0,0.0,0.0,98.0,453.0,0.0,0.0,243.0,2.0,0.0,0.0,0.0,2.0,0.2,0.9,2.0,6.0,0.381509375,0.5751000000000001,0.18791874999999997,-1.6,1.6,0.0,2.0,14.0,243.0
101.0,4.0,70.0,243.0,5.0,0.0,0.0,0.0,98.0,528.0,0.0,0.0,243.0,2.0,0.0,0.0,0.0,2.0,0.2,0.9,2.0,6.0,0.381509375,0.5751000000000001,0.18791874999999997,-1.6,1.6,0.0,2.0,14.0,243.0
101.0,4.0,71.0,1153.0,1.0,3.0,2.0,2.0,98.0,1455.0,1.0,5.0,1153.0,3.0,0.0,0.0,3.0,3.0,0.5,0.6,4.0,4.0,0.36399375,0.38193750000000004,0.34605,0.5,0.9999999999999998,0.7499999999999999,1.0,15.0,1153.0
101.0,4.0,72.0,1153.0,2.0,5.0,1.0,2.0,98.0,1069.0,1.0,5.0,1153.0,3.0,0.0,0.0,3.0,3.0,0.5,0.6,4.0,4.0,0.36399375,0.38193750000000004,0.34605,0.5,0.9999999999999998,0.7499999999999999,1.0,15.0,1153.0
101.0,4.0,73.0,1153.0,3.0,5.0,1.0,1.0,97.0,1862.0,1.0,5.0,1153.0,3.0,0.0,0.0,3.0,3.0,0.5,0.6,4.0,4.0,0.36399375,0.38193750000000004,0.34605,0.5,0.9999999999999998,0.7499999999999999,1.0,15.0,1153.0
101.0,4.0,74.0,1153.0,4.0,5.0,2.0,2.0,97.0,1309.0,0.0,4.0,1153.0,3.0,0.0,0.0,3.0,3.0,0.5,0.6,4.0,4.0,0.36399375,0.38193750000000004,0.34605,0.5,0.9999999999999998,0.7499999999999999,1.0,15.0,1153.0
101.0,4.0,75.0,1153.0,5.0,4.0,1.0,1.0,97.0,1109.0,1.0,2.0,1153.0,3.0,0.0,0.0,3.0,3.0,0.5,0.6,4.0,4.0,0.36399375,0.38193750000000004,0.34605,0.5,0.9999999999999998,0.7499999999999999,1.0,15.0,1153.0
101.0,4.0,76.0,1173.0,1.0,3.0,2.0,1.0,97.0,848.0,1.0,5.0,1173.0,3.0,0.0,0.0,0.0,2.0,0.5,0.8,2.0,6.0,0.265338125,0.37468749999999995,0.15598874999999995,-1.0,1.2000000000000002,0.10000000000000009,1.0,16.0,1173.0
101.0,4.0,77.0,1173.0,2.0,5.0,2.0,2.0,98.0,650.0,1.0,5.0,1173.0,3.0,0.0,0.0,0.0,2.0,0.5,0.8,2.0,6.0,0.265338125,0.37468749999999995,0.15598874999999995,-1.0,1.2000000000000002,0.10000000000000009,1.0,16.0,1173.0
101.0,4.0,78.0,1173.0,3.0,5.0,1.0,1.0,97.0,774.0,1.0,5.0,1173.0,3.0,0.0,0.0,0.0,2.0,0.5,0.8,2.0,6.0,0.265338125,0.37468749999999995,0.15598874999999995,-1.0,1.2000000000000002,0.10000000000000009,1.0,16.0,1173.0
101.0,4.0,79.0,1173.0,4.0,5.0,2.0,1.0,97.0,941.0,1.0,3.0,1173.0,3.0,0.0,0.0,0.0,2.0,0.5,0.8,2.0,6.0,0.265338125,0.37468749999999995,0.15598874999999995,-1.0,1.2000000000000002,0.10000000000000009,1.0,16.0,1173.0
101.0,4.0,80.0,1173.0,5.0,3.0,1.0,1.0,,2008.0,0.0,2.0,1173.0,3.0,0.0,0.0,0.0,2.0,0.5,0.8,2.0,6.0,0.265338125,0.37468749999999995,0.15598874999999995,-1.0,1.2000000000000002,0.10000000000000009,1.0,16.0,1173.0
101.0,4.0,81.0,1180.0,1.0,3.0,1.0,2.0,98.0,782.0,1.0,5.0,1180.0,3.0,0.0,0.0,2.0,2.0,0.5,0.8,2.0,6.0,0.23458499999999996,0.33062499999999995,0.13854499999999995,0.0,1.2000000000000002,0.6000000000000001,1.0,17.0,1180.0
101.0,4.0,82.0,1180.0,2.0,5.0,1.0,2.0,97.0,819.0,0.0,4.0,1180.0,3.0,0.0,0.0,2.0,2.0,0.5,0.8,2.0,6.0,0.23458499999999996,0.33062499999999995,0.13854499999999995,0.0,1.2000000000000002,0.6000000000000001,1.0,17.0,1180.0
101.0,4.0,83.0,1180.0,3.0,4.0,1.0,1.0,97.0,1050.0,1.0,5.0,1180.0,3.0,0.0,0.0,2.0,2.0,0.5,0.8,2.0,6.0,0.23458499999999996,0.33062499999999995,0.13854499999999995,0.0,1.2000000000000002,0.6000000000000001,1.0,17.0,1180.0
101.0,4.0,84.0,1180.0,4.0,5.0,2.0,2.0,98.0,1001.0,1.0,3.0,1180.0,3.0,0.0,0.0,2.0,2.0,0.5,0.8,2.0,6.0,0.23458499999999996,0.33062499999999995,0.13854499999999995,0.0,1.2000000000000002,0.6000000000000001,1.0,17.0,1180.0
101.0,4.0,85.0,1180.0,5.0,3.0,2.0,1.0,97.0,855.0,1.0,5.0,1180.0,3.0,0.0,0.0,2.0,2.0,0.5,0.8,2.0,6.0,0.23458499999999996,0.33062499999999995,0.13854499999999995,0.0,1.2000000000000002,0.6000000000000001,1.0,17.0,1180.0
101.0,4.0,86.0,1668.0,1.0,4.0,2.0,1.0,97.0,1059.0,1.0,5.0,1668.0,4.0,0.0,0.0,0.0,2.0,0.30000000000000004,0.7,2.0,6.0,0.2854375,0.3303125,0.24056250000000007,-1.4,0.7999999999999998,-0.30000000000000004,1.0,18.0,1668.0
101.0,4.0,87.0,1668.0,2.0,5.0,2.0,1.0,98.0,848.0,0.0,4.0,1668.0,4.0,0.0,0.0,0.0,2.0,0.30000000000000004,0.7,2.0,6.0,0.2854375,0.3303125,0.24056250000000007,-1.4,0.7999999999999998,-0.30000000000000004,1.0,18.0,1668.0
101.0,4.0,88.0,1668.0,3.0,4.0,1.0,2.0,97.0,1958.0,0.0,3.0,1668.0,4.0,0.0,0.0,0.0,2.0,0.30000000000000004,0.7,2.0,6.0,0.2854375,0.3303125,0.24056250000000007,-1.4,0.7999999999999998,-0.30000000000000004,1.0,18.0,1668.0
101.0,4.0,89.0,1668.0,4.0,3.0,1.0,2.0,97.0,1003.0,0.0,2.0,1668.0,4.0,0.0,0.0,0.0,2.0,0.30000000000000004,0.7,2.0,6.0,0.2854375,0.3303125,0.24056250000000007,-1.4,0.7999999999999998,-0.30000000000000004,1.0,18.0,1668.0
101.0,4.0,90.0,1668.0,5.0,2.0,1.0,1.0,97.0,1342.0,1.0,0.0,1668.0,4.0,0.0,0.0,0.0,2.0,0.30000000000000004,0.7,2.0,6.0,0.2854375,0.3303125,0.24056250000000007,-1.4,0.7999999999999998,-0.30000000000000004,1.0,18.0,1668.0
101.0,4.0,91.0,1143.0,1.0,3.0,1.0,1.0,98.0,1251.0,0.0,2.0,1143.0,3.0,0.0,0.0,0.0,2.0,0.5,0.6,2.0,5.0,0.48478750000000004,0.5778125000000001,0.3917625,-1.0,0.3999999999999999,-0.30000000000000004,2.0,19.0,1143.0
101.0,4.0,92.0,1143.0,2.0,2.0,2.0,2.0,98.0,814.0,1.0,0.0,1143.0,3.0,0.0,0.0,0.0,2.0,0.5,0.6,2.0,5.0,0.48478750000000004,0.5778125000000001,0.3917625,-1.0,0.3999999999999999,-0.30000000000000004,2.0,19.0,1143.0
101.0,4.0,93.0,1143.0,3.0,0.0,0.0,0.0,98.0,1531.0,0.0,0.0,1143.0,3.0,0.0,0.0,0.0,2.0,0.5,0.6,2.0,5.0,0.48478750000000004,0.5778125000000001,0.3917625,-1.0,0.3999999999999999,-0.30000000000000004,2.0,19.0,1143.0
101.0,4.0,94.0,1143.0,4.0,0.0,0.0,0.0,98.0,559.0,0.0,0.0,1143.0,3.0,0.0,0.0,0.0,2.0,0.5,0.6,2.0,5.0,0.48478750000000004,0.5778125000000001,0.3917625,-1.0,0.3999999999999999,-0.30000000000000004,2.0,19.0,1143.0
101.0,4.0,95.0,1143.0,5.0,0.0,0.0,0.0,98.0,1141.0,0.0,0.0,1143.0,3.0,0.0,0.0,0.0,2.0,0.5,0.6,2.0,5.0,0.48478750000000004,0.5778125000000001,0.3917625,-1.0,0.3999999999999999,-0.30000000000000004,2.0,19.0,1143.0
101.0,4.0,96.0,131.0,1.0,2.0,2.0,1.0,97.0,558.0,1.0,5.0,131.0,2.0,0.0,0.0,2.0,3.0,0.1,0.9,2.0,6.0,0.32707187499999996,0.5267499999999999,0.12739374999999997,-1.6,2.5,0.44999999999999996,1.0,20.0,131.0
101.0,4.0,97.0,131.0,2.0,5.0,1.0,2.0,97.0,996.0,0.0,4.0,131.0,2.0,0.0,0.0,2.0,3.0,0.1,0.9,2.0,6.0,0.32707187499999996,0.5267499999999999,0.12739374999999997,-1.6,2.5,0.44999999999999996,1.0,20.0,131.0
101.0,4.0,98.0,131.0,3.0,4.0,1.0,2.0,97.0,1112.0,0.0,3.0,131.0,2.0,0.0,0.0,2.0,3.0,0.1,0.9,2.0,6.0,0.32707187499999996,0.5267499999999999,0.12739374999999997,-1.6,2.5,0.44999999999999996,1.0,20.0,131.0
101.0,4.0,99.0,131.0,4.0,3.0,2.0,2.0,98.0,594.0,1.0,5.0,131.0,2.0,0.0,0.0,2.0,3.0,0.1,0.9,2.0,6.0,0.32707187499999996,0.5267499999999999,0.12739374999999997,-1.6,2.5,0.44999999999999996,1.0,20.0,131.0
101.0,4.0,100.0,131.0,5.0,5.0,2.0,1.0,97.0,1021.0,1.0,5.0,131.0,2.0,0.0,0.0,2.0,3.0,0.1,0.9,2.0,6.0,0.32707187499999996,0.5267499999999999,0.12739374999999997,-1.6,2.5,0.44999999999999996,1.0,20.0,131.0
101.0,4.0,101.0,987.0,1.0,3.0,2.0,2.0,98.0,1111.0,1.0,5.0,987.0,3.0,0.0,0.0,2.0,4.0,0.30000000000000004,0.6,2.0,5.0,0.4342000000000001,0.50275,0.36565000000000003,-0.7999999999999998,1.5999999999999999,0.4,4.0,21.0,987.0
101.0,4.0,102.0,987.0,2.0,5.0,2.0,2.0,97.0,916.0,0.0,4.0,987.0,3.0,0.0,0.0,2.0,4.0,0.30000000000000004,0.6,2.0,5.0,0.4342000000000001,0.50275,0.36565000000000003,-0.7999999999999998,1.5999999999999999,0.4,4.0,21.0,987.0
101.0,4.0,103.0,987.0,3.0,4.0,1.0,2.0,98.0,1303.0,1.0,2.0,987.0,3.0,0.0,0.0,2.0,4.0,0.30000000000000004,0.6,2.0,5.0,0.4342000000000001,0.50275,0.36565000000000003,-0.7999999999999998,1.5999999999999999,0.4,4.0,21.0,987.0
101.0,4.0,104.0,987.0,4.0,2.0,2.0,2.0,98.0,956.0,1.0,5.0,987.0,3.0,0.0,0.0,2.0,4.0,0.30000000000000004,0.6,2.0,5.0,0.4342000000000001,0.50275,0.36565000000000003,-0.7999999999999998,1.5999999999999999,0.4,4.0,21.0,987.0
101.0,4.0,105.0,987.0,5.0,5.0,2.0,2.0,98.0,1193.0,1.0,3.0,987.0,3.0,0.0,0.0,2.0,4.0,0.30000000000000004,0.6,2.0,5.0,0.4342000000000001,0.50275,0.36565000000000003,-0.7999999999999998,1.5999999999999999,0.4,4.0,21.0,987.0
101.0,4.0,106.0,1840.0,1.0,4.0,2.0,1.0,97.0,1139.0,1.0,5.0,1840.0,4.0,0.0,0.0,2.0,2.0,0.5,0.7,2.0,6.0,0.23312750000000007,0.2621125,0.2041425,0.0,0.7999999999999998,0.3999999999999999,2.0,22.0,1840.0
101.0,4.0,107.0,1840.0,2.0,5.0,1.0,1.0,98.0,690.0,0.0,4.0,1840.0,4.0,0.0,0.0,2.0,2.0,0.5,0.7,2.0,6.0,0.23312750000000007,0.2621125,0.2041425,0.0,0.7999999999999998,0.3999999999999999,2.0,22.0,1840.0
101.0,4.0,108.0,1840.0,3.0,4.0,2.0,2.0,98.0,650.0,1.0,5.0,1840.0,4.0,0.0,0.0,2.0,2.0,0.5,0.7,2.0,6.0,0.23312750000000007,0.2621125,0.2041425,0.0,0.7999999999999998,0.3999999999999999,2.0,22.0,1840.0
101.0,4.0,109.0,1840.0,4.0,5.0,2.0,2.0,97.0,1164.0,0.0,4.0,1840.0,4.0,0.0,0.0,2.0,2.0,0.5,0.7,2.0,6.0,0.23312750000000007,0.2621125,0.2041425,0.0,0.7999999999999998,0.3999999999999999,2.0,22.0,1840.0
101.0,4.0,110.0,1840.0,5.0,4.0,2.0,1.0,97.0,1141.0,1.0,2.0,1840.0,4.0,0.0,0.0,2.0,2.0,0.5,0.7,2.0,6.0,0.23312750000000007,0.2621125,0.2041425,0.0,0.7999999999999998,0.3999999999999999,2.0,22.0,1840.0
101.0,4.0,111.0,1321.0,1.0,3.0,1.0,1.0,97.0,1159.0,1.0,3.0,1321.0,3.0,0.0,0.0,0.0,0.0,0.8,0.9,2.0,6.0,0.2895625,0.3577437499999999,0.22138124999999997,-0.3999999999999999,-0.19999999999999996,-0.29999999999999993,1.0,23.0,1321.0
101.0,4.0,112.0,1321.0,2.0,3.0,2.0,1.0,97.0,1541.0,1.0,3.0,1321.0,3.0,0.0,0.0,0.0,0.0,0.8,0.9,2.0,6.0,0.2895625,0.3577437499999999,0.22138124999999997,-0.3999999999999999,-0.19999999999999996,-0.29999999999999993,1.0,23.0,1321.0
101.0,4.0,113.0,1321.0,3.0,3.0,2.0,1.0,97.0,1352.0,1.0,1.0,1321.0,3.0,0.0,0.0,0.0,0.0,0.8,0.9,2.0,6.0,0.2895625,0.3577437499999999,0.22138124999999997,-0.3999999999999999,-0.19999999999999996,-0.29999999999999993,1.0,23.0,1321.0
